"Time (s)","Acceleration x (m/s^2)","Acceleration y (m/s^2)","Acceleration z (m/s^2)"
2.433000200E-2,-1.197739318E-2,1.183366418E0,9.446569443E0
2.684323200E-2,1.197739318E-2,1.221694112E0,9.536399841E0
2.935646100E-2,2.395478543E-3,1.173784494E0,9.569936752E0
3.186969000E-2,1.137852296E-2,1.149829745E0,9.641201973E0
3.438291900E-2,1.796608907E-3,1.154620647E0,9.740614891E0
3.689614800E-2,1.616948098E-2,1.164801478E0,9.759179115E0
3.940937700E-2,-7.785305381E-3,1.136055708E0,9.759179115E0
4.192260700E-2,2.994348109E-2,1.136055708E0,9.768761635E0
4.443583600E-2,-3.593217814E-3,1.126473784E0,9.763970375E0
4.694906500E-2,-1.317513175E-2,1.059999228E0,9.772953987E0
4.946229400E-2,-2.754800394E-2,1.074372172E0,9.758581161E0
5.197552300E-2,2.455365472E-2,1.112699747E0,9.763371468E0
5.448875200E-2,3.413556889E-2,1.151027441E0,9.791518211E0
5.700198200E-2,4.311861470E-2,1.170191288E0,9.744207382E0
5.951521100E-2,2.395478636E-2,1.098326921E0,9.753789902E0
6.202844000E-2,-2.395478636E-2,1.112699747E0,9.762772560E0
6.454166900E-2,-9.581914172E-3,1.198937058E0,9.786727905E0
6.705489800E-2,3.293782845E-2,1.161208272E0,9.886139870E0
6.956807500E-2,5.689261481E-2,1.151626348E0,9.876558304E0
7.208130400E-2,1.856495813E-2,1.180372000E0,9.828648567E0
7.459453400E-2,2.814687230E-2,1.209117770E0,9.890332222E0
7.710776300E-2,6.587565690E-2,1.180372000E0,9.866376877E0
7.962099200E-2,8.024853468E-2,1.152225137E0,9.823857307E0
8.213422100E-2,6.527678668E-2,1.176180005E0,9.866376877E0
8.464745000E-2,4.611296207E-2,1.152225137E0,9.918478966E0
8.716067900E-2,7.964966446E-2,1.147434235E0,9.808885574E0
8.967390900E-2,1.077965349E-1,1.128270388E0,9.828049660E0
9.218713800E-2,7.425983250E-2,1.100123525E0,9.828049660E0
9.470036700E-2,9.821461886E-2,1.080959678E0,9.746603012E0
9.721359600E-2,1.503162831E-1,1.085750699E0,9.760975838E0
9.972682500E-2,1.215705350E-1,1.090541601E0,9.760975838E0
1.022400540E-1,1.640902758E-1,1.076168776E0,9.737021446E0
1.047532840E-1,1.353445351E-1,1.086349487E0,9.708275795E0
1.072665130E-1,1.401354969E-1,1.105513334E0,9.741213799E0
1.097797420E-1,1.401354969E-1,1.086349487E0,9.731631279E0
1.122929710E-1,1.401354969E-1,1.095931411E0,9.660366058E0
1.148062000E-1,1.539094895E-1,1.076767564E0,9.702885628E0
1.173194290E-1,1.251637489E-1,1.100722432E0,9.712468147E0
1.198326590E-1,1.772654057E-1,1.124677181E0,9.735823631E0
1.223458880E-1,1.676834971E-1,1.096530318E0,9.740614891E0
1.248591170E-1,1.006100997E-1,1.106112242E0,9.831044197E0
1.273723460E-1,1.006100997E-1,1.106112242E0,9.783134460E0
1.298855750E-1,1.101920158E-1,1.149230838E0,9.820862770E0
1.323988040E-1,7.186435908E-2,1.154021740E0,9.872964859E0
1.349120340E-1,8.144626766E-2,1.101920128E0,9.920874596E0
1.374252630E-1,4.311861470E-2,1.192349434E0,9.882546425E0
1.399384920E-1,2.814687230E-2,1.225886106E0,9.920275688E0
1.424517210E-1,-2.874574251E-2,1.178575397E0,9.886738777E0
1.449649500E-1,-1.976269856E-2,1.188157320E0,9.896320343E0
1.474781790E-1,-1.018078346E-2,1.231275916E0,9.914885521E0
1.499914090E-1,-1.497174054E-2,1.250439763E0,9.838829041E0
1.525046380E-1,8.384174667E-3,1.236066937E0,9.767563820E0
1.550178670E-1,3.712991625E-2,1.188756227E0,9.772355080E0
1.575310440E-1,2.754800394E-2,1.212710977E0,9.795710564E0
1.600442730E-1,4.611296207E-2,1.193547130E0,9.757982254E0
1.625575020E-1,8.444061875E-2,1.183965325E0,9.752592087E0
1.650707320E-1,8.384174854E-2,1.160010457E0,9.757383347E0
1.675839610E-1,9.342366457E-2,1.155818343E0,9.771756172E0
1.700971900E-1,1.077965349E-1,1.117490768E0,9.790320396E0
1.726104190E-1,1.407343596E-1,1.165400267E0,9.743010521E0
1.751236480E-1,2.024179399E-1,1.127072692E0,9.751993179E0
1.776368770E-1,2.119998485E-1,1.055807114E0,9.808885574E0
1.801501070E-1,1.592993289E-1,1.041434288E0,9.837631226E0
1.826633360E-1,1.922371536E-1,1.031852365E0,9.875360489E0
1.851765650E-1,1.874461919E-1,1.051016212E0,9.794512749E0
1.876897940E-1,2.018190622E-1,9.653778672E-1,9.808286667E0
1.902030230E-1,2.874574363E-1,1.003705502E0,9.865179062E0
1.927162520E-1,2.587116957E-1,1.032451272E0,9.884343147E0
1.952294820E-1,1.820563674E-1,1.018078327E0,9.793913841E0
1.977427110E-1,1.341467947E-1,1.003705502E0,9.888535500E0
2.002559400E-1,1.868473291E-1,1.004304409E0,9.850806236E0
2.027691690E-1,1.958303750E-1,1.004304409E0,9.864581108E0
2.052823980E-1,1.431298405E-1,1.047423005E0,9.869371414E0
2.077956270E-1,1.143840998E-1,1.080959678E0,9.831044197E0
2.103088570E-1,1.287569702E-1,1.028259158E0,9.811880112E0
2.128220860E-1,1.431298405E-1,1.071377754E0,9.787925720E0
2.153353150E-1,9.522027522E-2,1.095332623E0,9.750196457E0
2.178485440E-1,1.137852296E-1,1.066586852E0,9.687913895E0
2.203617730E-1,1.185761914E-1,1.124078274E0,9.716659546E0
2.228750020E-1,9.941235930E-2,1.138451219E0,9.635812759E0
2.253882320E-1,5.629374459E-2,1.115095258E0,9.635213852E0
2.279014610E-1,2.754800394E-2,1.167795777E0,9.630422592E0
2.304146900E-1,5.090392008E-2,1.186959624E0,9.620841026E0
2.329279190E-1,-4.431635141E-2,1.163004875E0,9.653778076E0
2.354411480E-1,7.785305381E-3,1.167795777E0,9.616049767E0
2.379543770E-1,-6.587565877E-3,1.196541548E0,9.658569336E0
2.404676070E-1,7.785305381E-3,1.149230838E0,9.615450859E0
2.429807840E-1,-2.096043713E-2,1.201931357E0,9.591496468E0
2.454940130E-1,1.676834933E-2,1.206722260E0,9.667552948E0
2.480072420E-1,-7.186435629E-3,1.192349434E0,9.629224777E0
2.505204710E-1,-2.395478543E-3,1.149230838E0,9.553168297E0
2.530337000E-1,-2.994348295E-3,1.182767510E0,9.567541122E0
2.555469290E-1,2.575139515E-2,1.168993473E0,9.567541122E0
2.580601590E-1,2.575139515E-2,1.149829745E0,9.590897560E0
2.605733880E-1,5.988696590E-3,1.125874877E0,9.576524734E0
2.630866170E-1,5.988696590E-3,1.145038724E0,9.680727959E0
2.655998460E-1,5.988696590E-3,1.149829745E0,9.680727959E0
2.681130750E-1,1.557061076E-2,1.116891861E0,9.614253044E0
2.706263040E-1,3.413556889E-2,1.131264687E0,9.580716133E0
2.731395340E-1,6.288131326E-2,1.136055708E0,9.613654137E0
2.756527630E-1,7.186435908E-2,1.097728014E0,9.680129051E0
2.781659920E-1,3.832765669E-2,1.055208325E0,9.699292183E0
2.806792210E-1,8.623722941E-2,1.055208325E0,9.684919357E0
2.831924500E-1,7.186435908E-2,1.079163074E0,9.684919357E0
2.857056790E-1,7.126548886E-2,1.088744998E0,9.703484535E0
2.882189090E-1,9.042931348E-2,1.036044478E0,9.769959450E0
2.907321380E-1,6.168357283E-2,1.088744998E0,9.769959450E0
2.932453670E-1,4.731070250E-2,1.051016212E0,9.774150848E0
2.957585960E-1,2.754800394E-2,1.074970961E0,9.702885628E0
2.982718250E-1,6.587565690E-2,1.103716731E0,9.754987717E0
3.007850540E-1,6.587565690E-2,1.098925829E0,9.698095322E0
3.032982840E-1,6.527678668E-2,1.113298655E0,9.659767151E0
3.058115130E-1,4.611296207E-2,1.084552884E0,9.650185585E0
3.083247420E-1,2.994348295E-3,1.080360770E0,9.564546585E0
3.108379710E-1,1.736721955E-2,1.089942694E0,9.559756279E0
3.133512000E-1,5.509600788E-2,1.128270388E0,9.478908539E0
3.158644290E-1,7.905079424E-2,1.133061409E0,9.497473717E0
3.183776590E-1,-7.186435629E-3,1.137852311E0,9.445371628E0
3.208908880E-1,2.635026351E-2,1.152225137E0,9.473518372E0
3.234041170E-1,1.197739318E-2,1.200134754E0,9.459145546E0
3.259173460E-1,-1.197739318E-2,1.238462448E0,9.520829201E0
3.284305750E-1,-2.215817571E-2,1.167196870E0,9.587304115E0
3.309437520E-1,-6.527678668E-2,1.162405968E0,9.548975945E0
3.334569820E-1,-2.694913372E-2,1.157614946E0,9.548975945E0
3.359702110E-1,-4.132200405E-2,1.200733662E0,9.563348770E0
3.384834400E-1,-4.192087427E-2,1.171987891E0,9.586705208E0
3.409966690E-1,-3.233896196E-2,1.129468083E0,9.591496468E0
3.435098980E-1,-2.754800394E-2,1.191750526E0,9.610060692E0
3.460231270E-1,-1.377400197E-2,1.191750526E0,9.662162781E0
3.485363570E-1,-1.856495813E-2,1.182168603E0,9.714263916E0
3.510495860E-1,5.389826838E-3,1.148631930E0,9.743010521E0
3.535628150E-1,9.581914172E-3,1.177377701E0,9.761574745E0
3.560760440E-1,2.395478636E-2,1.158812761E0,9.804095268E0
3.585892730E-1,6.168357283E-2,1.115694165E0,9.813676834E0
3.611025020E-1,7.126548886E-2,1.115694165E0,9.865777969E0
3.636157320E-1,3.772878647E-2,1.101321220E0,9.889733315E0
3.661289610E-1,3.772878647E-2,1.115694165E0,9.822659492E0
3.686421900E-1,2.814687230E-2,1.106711030E0,9.946026802E0
3.711554190E-1,1.796608977E-2,1.068383455E0,9.941235542E0
3.736686480E-1,-1.077965368E-2,1.082756281E0,9.912489891E0
3.761818770E-1,7.485870272E-2,1.125874877E0,9.946026802E0
3.786951070E-1,4.611296207E-2,1.121083975E0,9.907699585E0
3.812083360E-1,4.132200405E-2,1.092937112E0,9.841224670E0
3.837215650E-1,2.215817571E-2,1.078564167E0,9.783733368E0
3.862347940E-1,5.988696218E-2,1.078564167E0,9.778942108E0
3.887480230E-1,7.425983250E-2,1.092937112E0,9.698095322E0
3.912612520E-1,9.342366457E-2,1.097728014E0,9.688512802E0
3.937744820E-1,1.119886190E-1,1.116891861E0,9.640603065E0
3.962877110E-1,2.155930735E-2,1.088744998E0,9.588501930E0
3.988009400E-1,1.616948098E-2,1.107908845E0,9.611857414E0
4.013141690E-1,4.970617965E-2,1.155818343E0,9.564546585E0
4.038273980E-1,2.096043713E-2,1.146236539E0,9.487891197E0
4.063406270E-1,3.952539712E-2,1.146236539E0,9.483100891E0
4.088538570E-1,1.557061076E-2,1.194146037E0,9.487891197E0
4.113670860E-1,3.473443910E-2,1.189355135E0,9.530411720E0
4.138803150E-1,4.431635141E-2,1.256428480E0,9.492682457E0
4.163934920E-1,1.197739271E-3,1.204326868E0,9.501666069E0
4.189067210E-1,-4.192087334E-3,1.261219501E0,9.572931290E0
4.214199500E-1,5.988696357E-4,1.189953923E0,9.553767204E0
4.239331790E-1,3.832765669E-2,1.199535847E0,9.534603119E0
4.264464090E-1,-1.377400197E-2,1.156417251E0,9.572332382E0
4.289596380E-1,-9.581914172E-3,1.123479486E0,9.629224777E0
4.314728670E-1,2.395478636E-2,1.157016158E0,9.614851952E0
4.339860960E-1,4.790957086E-3,1.137852311E0,9.657371521E0
4.364993250E-1,3.293782845E-2,1.147434235E0,9.638208389E0
4.390125540E-1,4.731070250E-2,1.142643213E0,9.690908432E0
4.415257840E-1,4.671183228E-2,1.143242121E0,9.671744347E0
4.440390130E-1,2.754800394E-2,1.148033142E0,9.737620354E0
4.465522420E-1,8.983044326E-2,1.157614946E0,9.761574745E0
4.490654710E-1,9.881348908E-2,1.085750699E0,9.737620354E0
4.515787000E-1,2.275704592E-2,1.043230891E0,9.732829094E0
4.540919290E-1,7.964966446E-2,1.095931411E0,9.756185532E0
4.566051590E-1,5.090392008E-2,1.086349487E0,9.770558357E0
4.591183880E-1,3.653104603E-2,1.067185640E0,9.737021446E0
4.616316170E-1,7.425983250E-2,1.081558585E0,9.737021446E0
4.641448460E-1,5.509600788E-2,1.110304356E0,9.708275795E0
4.666580750E-1,8.324287832E-2,1.067784548E0,9.717857361E0
4.691713040E-1,1.407343596E-1,1.086948395E0,9.731631279E0
4.716845340E-1,5.928809568E-2,1.106112242E0,9.736422539E0
4.741977630E-1,5.928809568E-2,1.086948395E0,9.746004105E0
4.767109920E-1,6.887000799E-2,1.082157373E0,9.731631279E0
4.792242210E-1,8.743496984E-2,1.106112242E0,9.740614891E0
4.817374500E-1,1.209716648E-1,1.097129226E0,9.693304062E0
4.842506790E-1,6.348018348E-2,1.106711030E0,9.674139977E0
4.867639090E-1,6.288131326E-2,1.116292953E0,9.731032372E0
4.892771380E-1,5.809035525E-2,1.106711030E0,9.721450806E0
4.917903670E-1,3.413556889E-2,1.130665898E0,9.716060638E0
4.943035960E-1,1.976269856E-2,1.140247822E0,9.711270332E0
4.968168250E-1,4.790957272E-2,1.097728014E0,9.706479073E0
4.993300540E-1,4.790957272E-2,1.097728014E0,9.716060638E0
5.018432840E-1,9.102818370E-2,1.092937112E0,9.706479073E0
5.043564610E-1,3.832765669E-2,1.140846610E0,9.692106247E0
5.068696900E-1,4.731070250E-2,1.145637631E0,9.748998642E0
5.093829190E-1,9.522027522E-2,1.116891861E0,9.720252991E0
5.118961480E-1,7.126548886E-2,1.098326921E0,9.710671425E0
5.144093770E-1,8.503948897E-2,1.103117824E0,9.719654083E0
5.169226070E-1,1.137852296E-1,1.112699747E0,9.724445343E0
5.194358360E-1,1.089942753E-1,1.074372172E0,9.776546478E0
5.219490650E-1,9.402253479E-2,1.050417304E0,9.823857307E0
5.244622940E-1,1.796608977E-2,1.098326921E0,9.843021393E0
5.269755230E-1,6.048583239E-2,1.089343905E0,9.833439827E0
5.294887520E-1,5.569487438E-2,1.051016212E0,9.833439827E0
5.320019820E-1,7.425983250E-2,1.051016212E0,9.814275742E0
5.345152110E-1,9.821461886E-2,1.051016212E0,9.856795311E0
5.370283880E-1,1.125874892E-1,1.018078327E0,9.813676834E0
5.395416690E-1,3.593217954E-2,1.042033195E0,9.808885574E0
5.420548980E-1,7.845192403E-2,1.056406021E0,9.765767097E0
5.445681270E-1,6.887000799E-2,1.037242174E0,9.760975838E0
5.470813570E-1,9.282479435E-2,1.061197042E0,9.798705101E0
5.495945860E-1,5.449713767E-2,1.113897562E0,9.689710617E0
5.521078150E-1,9.222592413E-2,1.099524617E0,9.675337791E0
5.546210440E-1,5.389826745E-2,1.047423005E0,9.750795364E0
5.571342730E-1,7.785305381E-2,1.061795831E0,9.679530144E0
5.596475020E-1,6.348018348E-2,1.037841082E0,9.703484535E0
5.621607840E-1,6.288131326E-2,1.061795831E0,9.689111710E0
5.646740130E-1,1.245648861E-1,1.095332623E0,9.665157318E0
5.671872420E-1,8.204513788E-2,1.104914427E0,9.688512802E0
5.697004710E-1,6.228244305E-2,1.119287372E0,9.645993233E0
5.722137000E-1,7.665531337E-2,1.081558585E0,9.640603065E0
5.747269290E-1,6.707339734E-2,1.105513334E0,9.664558411E0
5.772401590E-1,1.095931455E-1,1.081558585E0,9.754388809E0
5.797533880E-1,1.000112295E-1,1.095931411E0,9.726242065E0
5.822666170E-1,4.731070250E-2,1.058202624E0,9.754388809E0
5.847798460E-1,2.814687230E-2,1.086948395E0,9.801699638E0
5.872931270E-1,2.335591614E-2,1.101321220E0,9.777744293E0
5.898063570E-1,8.983044885E-3,1.091739297E0,9.820263863E0
5.923195860E-1,2.754800394E-2,1.067784548E0,9.820263863E0
5.948328150E-1,-5.988696590E-3,1.101321220E0,9.768162727E0
5.973460440E-1,-2.036156692E-2,1.054010510E0,9.801100731E0
5.998592730E-1,1.796608977E-2,1.063592434E0,9.819664955E0
6.023725020E-1,3.174009174E-2,1.121083975E0,9.777145386E0
6.048857320E-1,-2.575139515E-2,1.082756281E0,9.734026909E0
6.073989610E-1,7.785305381E-3,1.063592434E0,9.753190994E0
6.099121900E-1,5.030504987E-2,1.101920128E0,9.748399734E0
6.124254710E-1,1.676834933E-2,1.064191341E0,9.738219261E0
6.149387000E-1,6.467792392E-2,1.116891861E0,9.719055176E0
6.174519290E-1,6.887000799E-2,1.088146091E0,9.690908432E0
6.199651590E-1,4.491522163E-2,1.025863647E0,9.733428001E0
6.224783880E-1,9.222592413E-2,1.045027494E0,9.766366005E0
6.249916170E-1,4.491522163E-2,1.116891861E0,9.666355133E0
6.275048460E-1,1.137852296E-2,1.121682882E0,9.723247528E0
6.300180750E-1,2.994348109E-2,1.107908845E0,9.713665962E0
6.325313040E-1,4.431635141E-2,1.107908845E0,9.708874702E0
6.350445340E-1,3.473443910E-2,1.083954096E0,9.718456268E0
6.375578150E-1,5.988696590E-3,1.117490768E0,9.756185532E0
6.400710440E-1,6.288131326E-2,1.127072692E0,9.670546532E0
6.425842730E-1,1.497174054E-2,1.118089557E0,9.713067055E0
6.450975020E-1,1.018078346E-2,1.070180058E0,9.703484535E0
6.476107320E-1,3.832765669E-2,1.065389037E0,9.650784492E0
6.501239610E-1,3.353669867E-2,1.084552884E0,9.617846489E0
6.526371900E-1,0.000000000E0,1.046824098E0,9.617247581E0
6.551504190E-1,4.731070250E-2,1.080360770E0,9.622038841E0
6.576636480E-1,5.689261481E-2,1.118688464E0,9.626829147E0
6.601769290E-1,2.335591614E-2,1.089942694E0,9.602874756E0
6.626901590E-1,3.293782845E-2,1.094733715E0,9.578919411E0
6.652033880E-1,5.150279030E-2,1.089942694E0,9.650185585E0
6.677166170E-1,5.150279030E-2,1.109106541E0,9.626230240E0
6.702298460E-1,1.317513175E-2,1.057004929E0,9.597484589E0
6.727430750E-1,7.485870272E-2,1.042631984E0,9.635213852E0
6.752563040E-1,3.174009174E-2,1.080959678E0,9.644795418E0
6.777695340E-1,-1.796608907E-3,1.109705448E0,9.630422592E0
6.802827630E-1,-3.533330932E-2,1.076168776E0,9.649586678E0
6.827959920E-1,4.072313383E-2,1.071377754E0,9.672942162E0
6.853092730E-1,2.395478543E-3,1.043230891E0,9.696298599E0
6.878225020E-1,-2.635026351E-2,1.091140509E0,9.634614944E0
6.903357320E-1,-2.395478543E-3,1.163004875E0,9.625032425E0
6.928489610E-1,-7.186435629E-3,1.100722432E0,9.691507339E0
6.953621900E-1,-4.072313383E-2,1.086349487E0,9.719654083E0
6.978754190E-1,-4.611296207E-2,1.134259105E0,9.681925774E0
7.003886480E-1,-1.257626247E-2,1.091739297E0,9.738818169E0
7.029018770E-1,-3.174009174E-2,1.106112242E0,9.695699692E0
7.054151070E-1,-2.275704592E-2,1.163603663E0,9.662162781E0
7.079283360E-1,-6.108470261E-2,1.125276089E0,9.647789955E0
7.104416170E-1,-6.108470261E-2,1.115694165E0,9.652581215E0
7.129548460E-1,-4.192087427E-2,1.125276089E0,9.633417130E0
7.154680750E-1,-2.335591614E-2,1.134858012E0,9.585507393E0
7.179813040E-1,-5.210165679E-2,1.116292953E0,9.533405304E0
7.204945340E-1,-4.731070250E-2,1.121083975E0,9.542388916E0
7.230077630E-1,-1.437287126E-2,1.082756281E0,9.495078087E0
7.255209920E-1,-1.437287126E-2,1.121083975E0,9.523224831E0
7.280342210E-1,1.916382834E-2,1.125874877E0,9.508852005E0
7.305474500E-1,4.731070250E-2,1.088146091E0,9.480106354E0
7.330606790E-1,8.983044885E-3,1.078564167E0,9.494479179E0
7.355739610E-1,3.293782845E-2,1.054609418E0,9.527417183E0
7.380871900E-1,3.233896196E-2,1.059400439E0,9.513044357E0
7.406004190E-1,2.275704592E-2,1.045626402E0,9.503461838E0
7.431136480E-1,4.192087427E-2,1.079163074E0,9.555563927E0
7.456268770E-1,2.275704592E-2,1.031253457E0,9.589100838E0
7.481401070E-1,6.048583239E-2,1.007298708E0,9.569936752E0
7.506533360E-1,3.653104603E-2,1.040835381E0,9.578919411E0
7.531665650E-1,3.174009174E-2,1.055208325E0,9.640603065E0
7.556797940E-1,2.994348295E-3,9.647789598E-1,9.731032372E0
7.581930750E-1,3.114122152E-2,1.012688518E0,9.716659546E0
7.607063040E-1,8.384174854E-2,1.017479539E0,9.640603065E0
7.632195340E-1,7.366096228E-2,1.003106594E0,9.697496414E0
7.657327630E-1,1.024067104E-1,1.012688518E0,9.716060638E0
7.682459920E-1,5.449713767E-2,1.032451272E0,9.701687813E0
7.707592210E-1,4.012426734E-2,1.008496523E0,9.687314987E0
7.732724500E-1,5.389826745E-2,1.022869349E0,9.692106247E0
7.757856790E-1,2.994348109E-2,1.008496523E0,9.701088905E0
7.782989090E-1,4.910730943E-2,1.032451272E0,9.720252991E0
7.808121380E-1,5.868922547E-2,1.046824098E0,9.686716080E0
7.833254190E-1,2.515252493E-2,1.075569868E0,9.643597603E0
7.858386480E-1,1.018078346E-2,1.047423005E0,9.638806343E0
7.883518770E-1,1.976269856E-2,1.037841082E0,9.705281258E0
7.908651070E-1,-4.731070250E-2,1.071377754E0,9.700489998E0
7.933783360E-1,-2.814687230E-2,1.057004929E0,9.643597603E0
7.958915650E-1,-2.814687230E-2,1.052213907E0,9.695699692E0
7.984047940E-1,-2.874574251E-2,1.057603836E0,9.719055176E0
8.009180230E-1,-4.311861470E-2,1.086349487E0,9.680727959E0
8.034312520E-1,-6.707339734E-2,1.091140509E0,9.709473610E0
8.059444820E-1,-1.054010540E-1,1.110304356E0,9.699891090E0
8.084577630E-1,-9.581914544E-2,1.076767564E0,9.628026962E0
8.109709920E-1,-7.725418359E-2,1.091140509E0,9.632818222E0
8.134842210E-1,-6.767226756E-2,1.124677181E0,9.656772614E0
8.159974500E-1,-4.850843921E-2,1.119886160E0,9.628026962E0
8.185106790E-1,-5.389826745E-2,1.134858012E0,9.580117226E0
8.210239090E-1,-7.785305381E-2,1.125276089E0,9.622637749E0
8.235371380E-1,-7.306209207E-2,1.130066991E0,9.603473663E0
8.260503670E-1,-7.785305381E-2,1.154021740E0,9.593891144E0
8.285635960E-1,-1.161807105E-1,1.149230838E0,9.546581268E0
8.310768770E-1,-1.071976647E-1,1.177976608E0,9.579518318E0
8.335901070E-1,-7.366096228E-2,1.149829745E0,9.622038841E0
8.361033360E-1,-1.024067104E-1,1.149829745E0,9.607666016E0
8.386165650E-1,-9.761574864E-2,1.173784494E0,9.631620407E0
8.411297940E-1,-9.821461886E-2,1.159411669E0,9.574129105E0
8.436430230E-1,-8.863270283E-2,1.149829745E0,9.631021500E0
8.461562520E-1,-8.863270283E-2,1.073773265E0,9.621439934E0
8.486694820E-1,-6.527678668E-2,1.088146091E0,9.592694283E0
8.511827110E-1,-9.881348908E-2,1.126473784E0,9.631021500E0
8.536959400E-1,-3.712991625E-2,1.131264687E0,9.683123589E0
8.562092210E-1,-7.066661865E-2,1.107309937E0,9.677733421E0
8.587224500E-1,-4.192087427E-2,1.098326921E0,9.734625816E0
8.612356790E-1,-3.233896196E-2,1.103117824E0,9.725044250E0
8.637489090E-1,-7.066661865E-2,1.136654615E0,9.687314987E0
8.662621380E-1,-1.856495813E-2,1.146236539E0,9.748998642E0
8.687753670E-1,-1.856495813E-2,1.127072692E0,9.781936646E0
8.712885960E-1,-7.605644315E-2,1.117490768E0,9.800501823E0
8.738018250E-1,-7.186435908E-2,1.136654615E0,9.810083389E0
8.763150540E-1,-6.707339734E-2,1.137253404E0,9.829247475E0
8.788282840E-1,-4.311861470E-2,1.103716731E0,9.838230133E0
8.813415650E-1,-5.749148503E-2,1.108507752E0,9.814275742E0
8.838547940E-1,-9.102818370E-2,1.089343905E0,9.814275742E0
8.863680230E-1,-4.850843921E-2,1.132462502E0,9.819067001E0
8.888812520E-1,3.593217814E-3,1.094733715E0,9.775947571E0
8.913944820E-1,-1.077965368E-2,1.142643213E0,9.813676834E0
8.939077110E-1,-3.473443910E-2,1.133061409E0,9.780738831E0
8.964209400E-1,-3.952539712E-2,1.195343852E0,9.775947571E0
8.989341690E-1,7.785305381E-3,1.152225137E0,9.751993179E0
9.014473980E-1,2.694913372E-2,1.118688464E0,9.704083443E0
9.039606270E-1,-3.533330932E-2,1.104914427E0,9.694501877E0
9.064739090E-1,-1.197739318E-2,1.109705448E0,9.704083443E0
9.089871380E-1,2.635026351E-2,1.080959678E0,9.665756226E0
9.115003670E-1,1.676834933E-2,1.066586852E0,9.675337791E0
9.140135960E-1,-1.197739318E-2,1.109705448E0,9.698693275E0
9.165268250E-1,-2.994348295E-3,1.109705448E0,9.722049713E0
9.190400540E-1,6.587565877E-3,1.100722432E0,9.712468147E0
9.215532840E-1,1.616948098E-2,1.100722432E0,9.707676888E0
9.240665130E-1,2.036156692E-2,1.110304356E0,9.698095322E0
9.265797420E-1,1.197739271E-3,1.124677181E0,9.722049713E0
9.290930230E-1,2.036156692E-2,1.110304356E0,9.745405197E0
9.316062520E-1,6.288131326E-2,1.115095258E0,9.797507286E0
9.341194820E-1,2.455365472E-2,1.130066991E0,9.787925720E0
9.366327110E-1,1.976269856E-2,1.106112242E0,9.735823631E0
9.391459400E-1,5.749148503E-2,1.144439816E0,9.768761635E0
9.416591690E-1,4.311861470E-2,1.110903144E0,9.735224724E0
9.441723980E-1,2.395478636E-2,1.049219608E0,9.749597549E0
9.466856270E-1,1.437287126E-2,1.082756281E0,9.763371468E0
9.491988570E-1,9.581914172E-3,1.049219608E0,9.772953987E0
9.517120860E-1,3.293782845E-2,1.068383455E0,9.758581161E0
9.542253670E-1,7.126548886E-2,1.049219608E0,9.696298599E0
9.567385960E-1,5.629374459E-2,1.097129226E0,9.615450859E0
9.592518250E-1,2.754800394E-2,1.097129226E0,9.663360596E0
9.617650540E-1,3.712991625E-2,1.135456800E0,9.686716080E0
9.642782840E-1,1.796608977E-2,1.121682882E0,9.638806343E0
9.667915130E-1,6.048583239E-2,1.083355188E0,9.619643211E0
9.693047420E-1,6.048583239E-2,1.155219555E0,9.614851952E0
9.718179710E-1,5.569487438E-2,1.164801478E0,9.624433517E0
9.743312000E-1,5.090392008E-2,1.136055708E0,9.642998695E0
9.768444290E-1,4.551409185E-2,1.117490768E0,9.681326866E0
9.793577110E-1,3.114122152E-2,1.088744998E0,9.647789955E0
9.818709400E-1,3.593217954E-2,1.107908845E0,9.642998695E0
9.843841690E-1,4.551409185E-2,1.151027441E0,9.747201920E0
9.868973980E-1,7.366096228E-2,1.136654615E0,9.723247528E0
9.894106270E-1,7.845192403E-2,1.127072692E0,9.718456268E0
9.919238570E-1,6.887000799E-2,1.113298655E0,9.751394272E0
9.944370860E-1,6.348018348E-2,1.046225309E0,9.732230186E0
9.969503150E-1,6.827113777E-2,1.084552884E0,9.699292183E0
9.994635440E-1,3.473443910E-2,1.070180058E0,9.760975838E0
1.001976773E0,1.059999242E-1,1.022869349E0,9.746603012E0
1.004490054E0,6.288131326E-2,1.042033195E0,9.732230186E0
1.007003284E0,7.725418359E-2,1.022869349E0,9.669947624E0
1.009516513E0,1.197739244E-1,1.070778966E0,9.702885628E0
1.012029742E0,1.437287182E-1,1.037242174E0,9.641201973E0
1.014542971E0,1.389377564E-1,9.803496003E-1,9.617247581E0
1.017056200E0,1.383388788E-1,9.899315238E-1,9.645993233E0
1.019569429E0,1.353445351E-1,9.635812640E-1,9.645394325E0
1.022082659E0,1.497174054E-1,9.635812640E-1,9.645394325E0
1.024595888E0,1.640902758E-1,9.971179366E-1,9.664558411E0
1.027109169E0,1.353445351E-1,9.779540896E-1,9.721450806E0
1.029622398E0,1.545083672E-1,9.827450514E-1,9.659767151E0
1.032135627E0,1.640902758E-1,1.035445571E0,9.750196457E0
1.034648857E0,1.401354969E-1,1.011490822E0,9.778343201E0
1.037161929E0,1.449264586E-1,1.011490822E0,9.802298546E0
1.039674950E0,1.640902758E-1,1.030654669E0,9.826252937E0
1.042187971E0,1.401354969E-1,1.016281724E0,9.878355026E0
1.044700940E0,1.401354969E-1,1.035445571E0,9.930456161E0
1.047213961E0,1.497174054E-1,1.025863647E0,9.911890984E0
1.049726982E0,1.401354969E-1,1.040236592E0,9.892727852E0
1.052239950E0,1.305535734E-1,1.025863647E0,9.883145332E0
1.054752971E0,9.222592413E-2,1.040236592E0,9.940038681E0
1.057265940E0,1.257626265E-1,1.001908898E0,9.987348557E0
1.059778961E0,1.161807105E-1,1.011490822E0,9.873563766E0
1.062291982E0,1.401354969E-1,1.045027494E0,9.892727852E0
1.064804950E0,1.353445351E-1,9.827450514E-1,9.887936592E0
1.067317971E0,1.113897488E-1,9.827450514E-1,9.897518158E0
1.069830992E0,1.257626265E-1,9.683722258E-1,9.887936592E0
1.072343961E0,1.449264586E-1,9.587903023E-1,9.797507286E0
1.074856982E0,1.401354969E-1,9.444174170E-1,9.787925720E0
1.077370002E0,1.113897488E-1,9.539993405E-1,9.802298546E0
1.079882971E0,1.826552451E-1,9.731631875E-1,9.731032372E0
1.082395992E0,1.592993289E-1,9.539993405E-1,9.692705154E0
1.084908961E0,1.688812375E-1,9.444174170E-1,9.650185585E0
1.087421982E0,1.640902758E-1,9.635812640E-1,9.659767151E0
1.089935002E0,1.784631461E-1,1.011490822E0,9.669348717E0
1.092447971E0,1.497174054E-1,9.731631875E-1,9.602874756E0
1.094960992E0,1.305535734E-1,1.006699800E0,9.635812759E0
1.097474013E0,1.257626265E-1,1.016281724E0,9.664558411E0
1.099986982E0,1.065987945E-1,1.025863647E0,9.598083496E0
1.102500002E0,1.018078402E-1,1.001908898E0,9.593292236E0
1.105013023E0,7.306209207E-2,1.049818516E0,9.593292236E0
1.107525992E0,8.264400810E-2,1.088146091E0,9.541191101E0
1.110039013E0,6.348018348E-2,1.049818516E0,9.545383453E0
1.112551982E0,6.348018348E-2,1.092937112E0,9.502862930E0
1.115065002E0,7.785305381E-2,1.097728014E0,9.512445450E0
1.117578023E0,1.161807105E-1,1.035445571E0,9.507654190E0
1.120090992E0,1.209716648E-1,1.030654669E0,9.478908539E0
1.122604013E0,1.209716648E-1,1.011490822E0,9.502862930E0
1.125117034E0,1.449264586E-1,1.016281724E0,9.531609535E0
1.127630002E0,1.922371536E-1,1.025863647E0,9.478908539E0
1.130143023E0,1.730733216E-1,9.827450514E-1,9.507654190E0
1.132656044E0,1.401354969E-1,9.827450514E-1,9.522027016E0
1.135169013E0,1.682823747E-1,9.635812640E-1,9.502862930E0
1.137682034E0,2.018190622E-1,9.306434393E-1,9.545383453E0
1.140195002E0,2.066100240E-1,9.066886306E-1,9.598083496E0
1.142708023E0,1.640902758E-1,9.402253032E-1,9.564546585E0
1.145221044E0,1.449264586E-1,9.498072267E-1,9.602874756E0
1.147734013E0,1.640902758E-1,9.498072267E-1,9.626230240E0
1.150247034E0,1.682823747E-1,9.450162649E-1,9.664558411E0
1.152760054E0,1.682823747E-1,9.683722258E-1,9.654975891E0
1.155273023E0,1.305535734E-1,9.450162649E-1,9.745405197E0
1.157786044E0,1.449264586E-1,9.683722258E-1,9.711869240E0
1.160299065E0,1.401354969E-1,9.587903023E-1,9.711869240E0
1.162812034E0,1.065987945E-1,9.306434393E-1,9.707077980E0
1.165325054E0,6.348018348E-2,9.354343414E-1,9.731032372E0
1.167838023E0,1.209716648E-1,9.587903023E-1,9.754987717E0
1.170351044E0,1.449264586E-1,9.827450514E-1,9.778343201E0
1.172864065E0,9.701687843E-2,9.731631875E-1,9.692705154E0
1.175377034E0,1.161807105E-1,9.875360131E-1,9.669348717E0
1.177890054E0,7.785305381E-2,9.731631875E-1,9.687913895E0
1.180403075E0,1.161807105E-1,9.402253032E-1,9.692705154E0
1.182916044E0,7.785305381E-2,1.006699800E0,9.721450806E0
1.185429065E0,6.348018348E-2,1.025863647E0,9.726242065E0
1.187942034E0,9.222592413E-2,1.006699800E0,9.697496414E0
1.190455054E0,3.952539712E-2,1.021072745E0,9.626230240E0
1.192968075E0,4.910730943E-2,1.001908898E0,9.669348717E0
1.195481044E0,4.431635141E-2,1.016281724E0,9.626230240E0
1.197994065E0,8.743496984E-2,9.971179366E-1,9.635812759E0
1.200507086E0,2.096043713E-2,1.045027494E0,9.683123589E0
1.203020054E0,3.952539712E-2,1.016281724E0,9.616648674E0
1.205533075E0,1.796608907E-3,1.054609418E0,9.602874756E0
1.208046096E0,8.264400810E-2,1.049818516E0,9.616648674E0
1.210559065E0,9.222592413E-2,1.064191341E0,9.569337845E0
1.213072086E0,6.827113777E-2,1.045027494E0,9.593292236E0
1.215585054E0,2.096043713E-2,1.049818516E0,9.635812759E0
1.218098075E0,5.389826745E-2,1.054609418E0,9.593292236E0
1.220611096E0,6.827113777E-2,1.049818516E0,9.588501930E0
1.223124065E0,3.473443910E-2,1.035445571E0,9.640603065E0
1.225637086E0,1.616948098E-2,1.035445571E0,9.598083496E0
1.228150107E0,6.827113777E-2,1.059400439E0,9.635812759E0
1.230663075E0,9.222592413E-2,1.064191341E0,9.650185585E0
1.233176096E0,2.515252493E-2,1.021072745E0,9.654975891E0
1.235689117E0,4.431635141E-2,1.025863647E0,9.669348717E0
1.238202086E0,3.952539712E-2,1.078564167E0,9.702286720E0
1.240715107E0,6.348018348E-2,1.064191341E0,9.697496414E0
1.243228075E0,5.868922547E-2,1.025863647E0,9.740614891E0
1.245741096E0,3.952539712E-2,1.064191341E0,9.740614891E0
1.248254117E0,4.431635141E-2,1.025863647E0,9.763970375E0
1.250767086E0,3.473443910E-2,1.006699800E0,9.840026855E0
1.253280107E0,2.994348109E-2,9.923269749E-1,9.802298546E0
1.255793127E0,2.994348109E-2,1.040236592E0,9.811880112E0
1.258306096E0,1.137852296E-2,1.030654669E0,9.807088852E0
1.260819117E0,5.868922547E-2,9.641801119E-1,9.873563766E0
1.263332138E0,2.994348109E-2,1.001908898E0,9.901710510E0
1.265845107E0,2.994348109E-2,1.006699800E0,9.887936592E0
1.268358127E0,2.515252493E-2,1.016281724E0,9.844818115E0
1.270871096E0,4.431635141E-2,9.593891501E-1,9.859190941E0
1.273384117E0,4.910730943E-2,9.923269749E-1,9.896919250E0
1.275897138E0,7.306209207E-2,1.021072745E0,9.811880112E0
1.278410107E0,7.785305381E-2,1.025863647E0,9.820862770E0
1.280923127E0,6.827113777E-2,1.025863647E0,9.797507286E0
1.283436148E0,6.348018348E-2,1.016281724E0,9.802298546E0
1.285949117E0,1.557061076E-2,1.006699800E0,9.783134460E0
1.288462138E0,1.557061076E-2,1.016281724E0,9.763970375E0
1.290975159E0,-2.994348295E-3,1.001908898E0,9.731032372E0
1.293488127E0,-7.785305381E-3,1.011490822E0,9.759179115E0
1.296001148E0,-3.653104603E-2,9.881349206E-1,9.759179115E0
1.298514117E0,-2.694913372E-2,1.025863647E0,9.721450806E0
1.301027138E0,-4.132200405E-2,1.040236592E0,9.711869240E0
1.303540159E0,-4.611296207E-2,1.097728014E0,9.673541069E0
1.306053127E0,-6.527678668E-2,1.102519035E0,9.654975891E0
1.308566148E0,-8.444061875E-2,1.073773265E0,9.692705154E0
1.311079169E0,-6.527678668E-2,1.088146091E0,9.692705154E0
1.313592138E0,-4.611296207E-2,1.179174304E0,9.650185585E0
1.316105159E0,-3.653104603E-2,1.126473784E0,9.692705154E0
1.318618127E0,-1.736721955E-2,1.126473784E0,9.692705154E0
1.321131148E0,-4.611296207E-2,1.155219555E0,9.707077980E0
1.323644169E0,1.077965368E-2,1.102519035E0,9.749597549E0
1.326157138E0,-3.653104603E-2,1.040236592E0,9.744806290E0
1.328670159E0,-2.694913372E-2,1.054609418E0,9.668749809E0
1.331183179E0,1.077965368E-2,1.030654669E0,9.702286720E0
1.333696148E0,-2.215817571E-2,1.021072745E0,9.716659546E0
1.336209169E0,2.036156692E-2,1.049818516E0,9.678332329E0
1.338722190E0,-1.736721955E-2,1.064191341E0,9.749597549E0
1.341235159E0,-7.785305381E-3,1.068982244E0,9.749597549E0
1.343748179E0,-1.257626247E-2,1.059400439E0,9.759179115E0
1.346261148E0,-1.257626247E-2,1.097728014E0,9.792716026E0
1.348774169E0,2.036156692E-2,1.025863647E0,9.820862770E0
1.351287190E0,1.197739271E-3,1.073773265E0,9.768761635E0
1.353800159E0,4.431635141E-2,9.977167845E-1,9.783134460E0
1.356313179E0,6.348018348E-2,1.040236592E0,9.792716026E0
1.358826200E0,3.952539712E-2,1.073773265E0,9.787925720E0
1.361339169E0,3.952539712E-2,1.064191341E0,9.778343201E0
1.363852190E0,7.785305381E-2,1.102519035E0,9.854399681E0
1.366365211E0,5.389826745E-2,1.073773265E0,9.854399681E0
1.368878179E0,7.785305381E-2,1.078564167E0,9.797507286E0
1.371391200E0,4.910730943E-2,1.059400439E0,9.783134460E0
1.373904169E0,4.910730943E-2,1.049818516E0,9.721450806E0
1.376417190E0,6.827113777E-2,1.007298708E0,9.768761635E0
1.378930211E0,8.264400810E-2,9.881349206E-1,9.778343201E0
1.381443179E0,5.868922547E-2,9.785529971E-1,9.735224724E0
1.383956200E0,6.348018348E-2,9.977167845E-1,9.825654030E0
1.386469221E0,6.348018348E-2,9.929258823E-1,9.820862770E0
1.388982190E0,9.222592413E-2,1.025863647E0,9.726242065E0
1.391495211E0,8.743496984E-2,1.012089729E0,9.731032372E0
1.394008232E0,9.701687843E-2,9.785529971E-1,9.773552895E0
1.396521200E0,8.264400810E-2,9.881349206E-1,9.711869240E0
1.399034221E0,9.701687843E-2,1.040236592E0,9.731032372E0
1.401547190E0,9.701687843E-2,1.049818516E0,9.754388809E0
1.404060211E0,5.868922547E-2,1.021072745E0,9.716659546E0
1.406573232E0,8.743496984E-2,1.054609418E0,9.797507286E0
1.409086200E0,7.785305381E-2,1.059400439E0,9.806489944E0
1.411599221E0,5.389826745E-2,1.012089729E0,9.773552895E0
1.414112242E0,4.431635141E-2,1.045027494E0,9.854399681E0
1.416625211E0,6.348018348E-2,1.040236592E0,9.792716026E0
1.419138232E0,2.036156692E-2,1.049818516E0,9.797507286E0
1.421651252E0,1.557061076E-2,1.059400439E0,9.811281204E0
1.424164221E0,6.348018348E-2,1.040236592E0,9.787925720E0
1.426677242E0,1.197739271E-3,1.045027494E0,9.768761635E0
1.429190211E0,5.389826745E-2,1.016880631E0,9.768761635E0
1.431703232E0,5.389826745E-2,1.021671653E0,9.730433464E0
1.434216252E0,2.994348109E-2,1.021671653E0,9.697496414E0
1.436729221E0,5.868922547E-2,1.012089729E0,9.735224724E0
1.439242242E0,7.785305381E-2,1.030654669E0,9.659168243E0
1.441755263E0,3.952539712E-2,1.007298708E0,9.692705154E0
1.444268232E0,5.389826745E-2,1.040236592E0,9.673541069E0
1.446781252E0,9.222592413E-2,1.025863647E0,9.602275848E0
1.449294273E0,6.827113777E-2,1.012089729E0,9.607067108E0
1.451807242E0,4.910730943E-2,1.007298708E0,9.592694283E0
1.454320263E0,7.785305381E-2,1.040236592E0,9.578919411E0
1.456833232E0,8.743496984E-2,9.641801119E-1,9.587903023E0
1.459346252E0,9.222592413E-2,9.785529971E-1,9.597484589E0
1.461859273E0,8.743496984E-2,1.045027494E0,9.559756279E0
1.464372242E0,8.264400810E-2,1.026462555E0,9.554965019E0
1.466885263E0,9.222592413E-2,9.833439589E-1,9.597484589E0
1.469398284E0,9.641800821E-2,1.040236592E0,9.587903023E0
1.471911252E0,7.306209207E-2,1.002507806E0,9.587903023E0
1.474424273E0,9.222592413E-2,9.737620354E-1,9.616648674E0
1.476937242E0,6.348018348E-2,1.035445571E0,9.640603065E0
1.479450263E0,9.641800821E-2,1.012089729E0,9.683123589E0
1.481963284E0,7.785305381E-2,9.929258823E-1,9.654376984E0
1.484476252E0,7.785305381E-2,9.881349206E-1,9.702286720E0
1.486989273E0,1.059999242E-1,1.031253457E0,9.697496414E0
1.489502294E0,9.162705392E-2,1.007298708E0,9.716659546E0
1.492015263E0,1.203727946E-1,9.881349206E-1,9.735224724E0
1.494528284E0,8.743496984E-2,1.021671653E0,9.811281204E0
1.497041304E0,6.348018348E-2,1.036044478E0,9.792716026E0
1.499554273E0,1.539094895E-1,9.977167845E-1,9.792716026E0
1.502067294E0,1.059999242E-1,1.031253457E0,9.816072464E0
1.504580263E0,8.264400810E-2,1.007298708E0,9.825654030E0
1.507093284E0,6.348018348E-2,9.881349206E-1,9.872964859E0
1.509606304E0,9.162705392E-2,1.007298708E0,9.911292076E0
1.512119273E0,9.162705392E-2,9.258524776E-1,9.958602905E0
1.514632294E0,1.203727946E-1,9.450162649E-1,9.939439774E0
1.517145315E0,1.395366192E-1,9.498072267E-1,9.944230080E0
1.519658284E0,1.443275809E-1,9.545981884E-1,9.953812599E0
1.522171304E0,1.730733216E-1,8.971067071E-1,9.925664902E0
1.524684325E0,1.778642833E-1,9.354343414E-1,9.972975731E0
1.527197294E0,1.491185427E-1,9.258524776E-1,9.992139816E0
1.529710315E0,1.587004513E-1,9.114795923E-1,9.963394165E0
1.532223284E0,1.539094895E-1,9.354343414E-1,9.906501770E0
1.534736304E0,1.299547106E-1,9.114795923E-1,9.863383293E0
1.537249377E0,1.395366192E-1,9.162705541E-1,9.863383293E0
1.539762554E0,1.539094895E-1,9.162705541E-1,9.896919250E0
1.542275732E0,1.299547106E-1,9.545981884E-1,9.825654030E0
1.544788909E0,1.299547106E-1,9.306434393E-1,9.830445290E0
1.547302138E0,1.059999242E-1,9.258524776E-1,9.811281204E0
1.549815315E0,8.683609962E-2,9.402253032E-1,9.806489944E0
1.552328492E0,1.059999242E-1,9.737620354E-1,9.796908379E0
1.554841669E0,8.683609962E-2,9.593891501E-1,9.740015984E0
1.557354846E0,4.910730943E-2,9.833439589E-1,9.773552895E0
1.559868023E0,5.988696590E-3,9.545981884E-1,9.702286720E0
1.562381252E0,5.389826745E-2,9.785529971E-1,9.725643158E0
1.564894429E0,6.348018348E-2,9.689710736E-1,9.678332329E0
1.567407607E0,7.246322930E-2,9.641801119E-1,9.687913895E0
1.569920784E0,3.952539712E-2,1.002507806E0,9.668749809E0
1.572433961E0,1.077965368E-2,9.977167845E-1,9.687913895E0
1.574947138E0,9.162705392E-2,9.737620354E-1,9.673541069E0
1.577460367E0,1.155818403E-1,9.833439589E-1,9.683123589E0
1.579973544E0,7.725418359E-2,9.929258823E-1,9.678332329E0
1.582486721E0,9.162705392E-2,1.012089729E0,9.649586678E0
1.584999898E0,1.059999242E-1,9.785529971E-1,9.659168243E0
1.587513075E0,6.767226756E-2,9.977167845E-1,9.711270332E0
1.590026252E0,9.641800821E-2,9.545981884E-1,9.692705154E0
1.592539482E0,1.107908860E-1,9.545981884E-1,9.707077980E0
1.595052659E0,1.155818403E-1,9.354343414E-1,9.778343201E0
1.597565836E0,7.725418359E-2,9.641801119E-1,9.763970375E0
1.600079013E0,7.246322930E-2,9.450162649E-1,9.768761635E0
1.602592190E0,8.683609962E-2,9.306434393E-1,9.787326813E0
1.605105367E0,1.107908860E-1,9.593891501E-1,9.763970375E0
1.607618544E0,7.246322930E-2,9.354343414E-1,9.759179115E0
1.610131773E0,6.288131326E-2,9.210615158E-1,9.768761635E0
1.612644950E0,1.012089700E-1,9.306434393E-1,9.687913895E0
1.615158127E0,8.204513788E-2,9.306434393E-1,9.673541069E0
1.617671304E0,7.725418359E-2,9.450162649E-1,9.692705154E0
1.620184482E0,3.952539712E-2,9.929258823E-1,9.659168243E0
1.622697659E0,6.288131326E-2,9.737620354E-1,9.663959503E0
1.625210888E0,5.389826745E-2,9.881349206E-1,9.673541069E0
1.627724065E0,3.473443910E-2,1.012089729E0,9.668749809E0
1.630237242E0,4.910730943E-2,1.016880631E0,9.659168243E0
1.632750419E0,1.077965368E-2,9.833439589E-1,9.640004158E0
1.635263596E0,2.515252493E-2,9.498072267E-1,9.626230240E0
1.637776773E0,1.557061076E-2,1.026462555E0,9.621439934E0
1.640290002E0,1.197739271E-3,1.040835381E0,9.611857414E0
1.642803179E0,5.988696590E-3,1.012089729E0,9.663959503E0
1.645316357E0,1.197739271E-3,1.050417304E0,9.683123589E0
1.647829534E0,1.557061076E-2,1.021671653E0,9.725643158E0
1.650342711E0,-3.593217814E-3,1.016880631E0,9.706479073E0
1.652855888E0,2.515252493E-2,1.007298708E0,9.744806290E0
1.655369117E0,-3.593217814E-3,9.881349206E-1,9.801699638E0
1.657882294E0,-5.150279030E-2,9.929258823E-1,9.735224724E0
1.660395471E0,-7.066661865E-2,1.007298708E0,9.777744293E0
1.662908648E0,-5.629374459E-2,1.021671653E0,9.773552895E0
1.665421825E0,-8.384174667E-3,1.036044478E0,9.749597549E0
1.667935002E0,-1.317513175E-2,9.929258823E-1,9.730433464E0
1.670448179E0,-1.317513175E-2,1.021671653E0,9.659168243E0
1.672961409E0,-8.384174667E-3,1.012089729E0,9.668749809E0
1.675474586E0,-8.384174667E-3,1.002507806E0,9.687913895E0
1.677987763E0,1.557061076E-2,1.069581151E0,9.687913895E0
1.680500940E0,-1.796608977E-2,1.079163074E0,9.711270332E0
1.683014117E0,-2.754800394E-2,1.031253457E0,9.725643158E0
1.685527294E0,-3.593217814E-3,1.055208325E0,9.730433464E0
1.688040523E0,-3.593217814E-3,1.021671653E0,9.730433464E0
1.690553700E0,-5.629374459E-2,1.050417304E0,9.697496414E0
1.693066877E0,-3.712991625E-2,1.059999228E0,9.687913895E0
1.695580054E0,-2.754800394E-2,1.074372172E0,9.649586678E0
1.698093232E0,-3.233896196E-2,1.026462555E0,9.706479073E0
1.700606409E0,-2.275704592E-2,1.016880631E0,9.754388809E0
1.703119638E0,-6.108470261E-2,9.929258823E-1,9.725643158E0
1.705632815E0,-3.593217814E-3,1.016880631E0,9.720851898E0
1.708145992E0,1.557061076E-2,1.050417304E0,9.687913895E0
1.710659169E0,3.473443910E-2,1.007298708E0,9.740015984E0
1.713172346E0,2.994348109E-2,1.021671653E0,9.749597549E0
1.715685523E0,2.036156692E-2,1.016880631E0,9.777744293E0
1.718198752E0,5.988696590E-3,1.031253457E0,9.740015984E0
1.720711929E0,2.515252493E-2,1.012089729E0,9.759179115E0
1.723225107E0,5.988696590E-3,9.881349206E-1,9.768761635E0
1.725738284E0,-3.593217814E-3,1.016880631E0,9.782535553E0
1.728251461E0,-8.384174667E-3,1.021671653E0,9.735224724E0
1.730764638E0,1.077965368E-2,9.881349206E-1,9.683123589E0
1.733277815E0,1.197739271E-3,9.641801119E-1,9.725643158E0
1.735791044E0,-2.754800394E-2,1.026462555E0,9.716060638E0
1.738304221E0,-5.629374459E-2,1.016880631E0,9.696897507E0
1.740817398E0,1.077965368E-2,1.040835381E0,9.654376984E0
1.743330575E0,1.077965368E-2,1.040835381E0,9.678332329E0
1.745843752E0,-3.593217814E-3,1.040835381E0,9.635213852E0
1.748356929E0,2.515252493E-2,1.031253457E0,9.616648674E0
1.750870159E0,3.413556889E-2,1.016880631E0,9.668749809E0
1.753383336E0,2.515252493E-2,1.031253457E0,9.654376984E0
1.755896513E0,1.557061076E-2,1.031253457E0,9.616648674E0
1.758409690E0,5.809035525E-2,9.929258823E-1,9.607067108E0
1.760922867E0,7.725418359E-2,9.641801119E-1,9.649586678E0
1.763436044E0,8.204513788E-2,9.833439589E-1,9.663959503E0
1.765949273E0,4.371748492E-2,9.737620354E-1,9.687913895E0
1.768462450E0,9.641800821E-2,9.833439589E-1,9.678332329E0
1.770975627E0,8.204513788E-2,9.545981884E-1,9.730433464E0
1.773488804E0,9.162705392E-2,9.977167845E-1,9.692106247E0
1.776001982E0,3.892652690E-2,9.977167845E-1,9.701687813E0
1.778515159E0,8.683609962E-2,9.977167845E-1,9.659168243E0
1.781028388E0,4.371748492E-2,9.977167845E-1,9.654376984E0
1.783541565E0,1.197739271E-3,9.498072267E-1,9.706479073E0
1.786054742E0,3.413556889E-2,9.833439589E-1,9.663959503E0
1.788567919E0,2.934461273E-2,9.977167845E-1,9.683123589E0
1.791081096E0,1.557061076E-2,1.007298708E0,9.696897507E0
1.793594273E0,2.934461273E-2,9.881349206E-1,9.720851898E0
1.796107450E0,6.767226756E-2,1.002507806E0,9.668749809E0
1.798620679E0,9.162705392E-2,1.007298708E0,9.706479073E0
1.801133857E0,7.725418359E-2,9.977167845E-1,9.768162727E0
1.803647034E0,1.059999242E-1,9.737620354E-1,9.696897507E0
1.806160211E0,9.641800821E-2,1.007298708E0,9.735224724E0
1.808673388E0,7.246322930E-2,9.929258823E-1,9.725643158E0
1.811186565E0,3.413556889E-2,9.593891501E-1,9.735224724E0
1.813699794E0,1.557061076E-2,9.593891501E-1,9.792117119E0
1.816212971E0,1.197739271E-3,9.785529971E-1,9.796908379E0
1.818726148E0,1.976269856E-2,9.737620354E-1,9.801699638E0
1.821239325E0,-8.384174667E-3,1.040835381E0,9.811281204E0
1.823752502E0,-2.754800394E-2,1.007298708E0,9.830445290E0
1.826265679E0,2.455365472E-2,9.881349206E-1,9.830445290E0
1.828778909E0,-3.593217814E-3,1.031253457E0,9.839427948E0
1.831292086E0,1.077965368E-2,1.059999228E0,9.834636688E0
1.833805263E0,5.988696590E-3,1.040835381E0,9.858592033E0
1.836318440E0,5.329939723E-2,1.040835381E0,9.868173599E0
1.838831617E0,6.288131326E-2,1.074372172E0,9.820862770E0
1.841344794E0,2.455365472E-2,1.064790249E0,9.829846382E0
1.843858023E0,6.767226756E-2,1.021671653E0,9.853800774E0
1.846371200E0,6.288131326E-2,1.012089729E0,9.806489944E0
1.848884377E0,4.850843921E-2,1.007298708E0,9.787326813E0
1.851397554E0,9.162705392E-2,1.007298708E0,9.820862770E0
1.853910732E0,1.155818403E-1,9.929258823E-1,9.792117119E0
1.856423909E0,9.641800821E-2,9.785529971E-1,9.720851898E0
1.858937086E0,7.725418359E-2,9.450162649E-1,9.673541069E0
1.861450315E0,8.683609962E-2,1.002507806E0,9.696897507E0
1.863963492E0,9.641800821E-2,9.354343414E-1,9.706479073E0
1.866476669E0,1.203727946E-1,9.072874784E-1,9.663959503E0
1.868989846E0,7.725418359E-2,9.498072267E-1,9.687314987E0
1.871503023E0,1.059999242E-1,9.354343414E-1,9.692106247E0
1.874016200E0,1.485196650E-1,9.402253032E-1,9.692106247E0
1.876529429E0,1.437287182E-1,9.210615158E-1,9.696897507E0
1.879042607E0,1.251637489E-1,9.689710736E-1,9.678332329E0
1.881555784E0,1.203727946E-1,9.402253032E-1,9.687314987E0
1.884068961E0,8.683609962E-2,9.402253032E-1,9.763371468E0
1.886582138E0,1.251637489E-1,9.306434393E-1,9.768162727E0
1.889095315E0,1.012089700E-1,9.258524776E-1,9.816072464E0
1.891608544E0,6.767226756E-2,9.120784402E-1,9.820862770E0
1.894121721E0,6.288131326E-2,9.977167845E-1,9.868173599E0
1.896634898E0,9.641800821E-2,9.689710736E-1,9.958602905E0
1.899148075E0,4.850843921E-2,9.689710736E-1,9.953812599E0
1.901661252E0,1.018078346E-2,9.737620354E-1,9.996332169E0
1.904174429E0,3.892652690E-2,1.002507806E0,9.887337685E0
1.906687659E0,1.497174054E-2,1.002507806E0,9.944230080E0
1.909200836E0,1.018078346E-2,1.021671653E0,9.963394165E0
1.911714013E0,7.246322930E-2,1.026462555E0,9.910693169E0
1.914227190E0,6.288131326E-2,1.026462555E0,9.844219208E0
1.916740367E0,5.988696357E-4,9.737620354E-1,9.839427948E0
1.919253544E0,5.809035525E-2,9.929258823E-1,9.825055122E0
1.921766721E0,9.162705392E-2,1.007298708E0,9.777744293E0
1.924279950E0,2.934461273E-2,1.012089729E0,9.735224724E0
1.926793127E0,4.850843921E-2,1.002507806E0,9.740015984E0
1.929306304E0,4.371748492E-2,1.040835381E0,9.763371468E0
1.931819482E0,3.892652690E-2,1.036044478E0,9.730433464E0
1.934332659E0,5.809035525E-2,1.026462555E0,9.692106247E0
1.936845836E0,9.162705392E-2,1.026462555E0,9.654376984E0
1.939359065E0,7.246322930E-2,9.977167845E-1,9.696897507E0
1.941872242E0,1.976269856E-2,9.689710736E-1,9.630422592E0
1.944385419E0,5.329939723E-2,1.021671653E0,9.568738937E0
1.946898596E0,9.641800821E-2,1.026462555E0,9.620841026E0
1.949411773E0,7.246322930E-2,9.545981884E-1,9.544784546E0
1.951924950E0,2.934461273E-2,9.929258823E-1,9.530411720E0
1.954438179E0,6.767226756E-2,1.026462555E0,9.521428108E0
1.956951357E0,7.246322930E-2,1.026462555E0,9.554366112E0
1.959464534E0,8.204513788E-2,1.055208325E0,9.592694283E0
1.961977711E0,5.809035525E-2,1.064790249E0,9.563947678E0
1.964490888E0,3.892652690E-2,1.031253457E0,9.611258507E0
1.967004065E0,3.413556889E-2,1.031253457E0,9.620841026E0
1.969517294E0,1.497174054E-2,1.045626402E0,9.597484589E0
1.972030471E0,-1.377400197E-2,1.055208325E0,9.616049767E0
1.974543648E0,1.018078346E-2,1.064790249E0,9.720851898E0
1.977056825E0,-2.275704592E-2,1.079163074E0,9.706479073E0
1.979570002E0,-8.983044885E-3,1.079163074E0,9.716060638E0
1.982083179E0,-2.754800394E-2,1.036044478E0,9.720851898E0
1.984596357E0,-6.587565690E-2,1.059999228E0,9.763371468E0
1.987109586E0,-1.377400197E-2,1.064790249E0,9.730433464E0
1.989622763E0,-4.192087334E-3,1.055208325E0,9.763371468E0
1.992135940E0,-4.192087427E-2,1.007298708E0,9.782535553E0
1.994649117E0,-4.192087334E-3,1.036044478E0,9.834636688E0
1.997162294E0,2.934461273E-2,1.036044478E0,9.796908379E0
1.999675471E0,5.988696357E-4,9.977167845E-1,9.792117119E0
2.002188700E0,3.892652690E-2,1.012089729E0,9.849010468E0
2.004701877E0,3.413556889E-2,9.498072267E-1,9.811281204E0
2.007215054E0,5.809035525E-2,9.785529971E-1,9.801699638E0
2.009728232E0,6.288131326E-2,9.929258823E-1,9.758581161E0
2.012241409E0,1.976269856E-2,9.689710736E-1,9.829846382E0
2.014754586E0,5.329939723E-2,9.312422872E-1,9.796908379E0
2.017267815E0,5.809035525E-2,9.498072267E-1,9.763371468E0
2.019780992E0,7.246322930E-2,9.498072267E-1,9.763371468E0
2.022294169E0,1.497174054E-2,9.354343414E-1,9.777744293E0
2.024807346E0,8.204513788E-2,9.450162649E-1,9.801699638E0
2.027320523E0,9.162705392E-2,9.306434393E-1,9.730433464E0
2.029833700E0,7.725418359E-2,9.024965167E-1,9.716060638E0
2.032346929E0,7.725418359E-2,9.641801119E-1,9.668749809E0
2.034860107E0,1.012089700E-1,9.977167845E-1,9.725643158E0
2.037373232E0,1.012089700E-1,9.641801119E-1,9.711270332E0
2.039886357E0,6.767226756E-2,1.021671653E0,9.735224724E0
2.042399482E0,9.162705392E-2,1.012089729E0,9.716060638E0
2.044912659E0,1.497174054E-2,1.026462555E0,9.720851898E0
2.047425784E0,3.413556889E-2,1.069581151E0,9.735224724E0
2.049938909E0,3.892652690E-2,1.036044478E0,9.720851898E0
2.052452086E0,4.371748492E-2,1.036044478E0,9.749597549E0
2.054965211E0,6.767226756E-2,1.031253457E0,9.758581161E0
2.057478336E0,2.455365472E-2,1.103117824E0,9.735224724E0
2.059991513E0,1.976269856E-2,1.088744998E0,9.749597549E0
2.062504638E0,2.455365472E-2,1.002507806E0,9.749597549E0
2.065017763E0,1.976269856E-2,1.045626402E0,9.725643158E0
2.067530940E0,3.892652690E-2,1.050417304E0,9.692106247E0
2.070044065E0,3.413556889E-2,9.881349206E-1,9.716060638E0
2.072557190E0,3.892652690E-2,9.881349206E-1,9.716060638E0
2.075070367E0,2.455365472E-2,1.012089729E0,9.735224724E0
2.077583492E0,1.497174054E-2,1.012089729E0,9.768162727E0
2.080096617E0,7.246322930E-2,1.026462555E0,9.725643158E0
2.082609794E0,6.767226756E-2,9.498072267E-1,9.701687813E0
2.085122919E0,4.371748492E-2,9.162705541E-1,9.749597549E0
2.087636044E0,1.976269856E-2,9.977167845E-1,9.687314987E0
2.090149221E0,1.018078346E-2,9.785529971E-1,9.711270332E0
2.092662346E0,2.455365472E-2,9.977167845E-1,9.706479073E0
2.095175471E0,2.934461273E-2,1.088744998E0,9.706479073E0
2.097688648E0,-2.754800394E-2,1.026462555E0,9.687314987E0
2.100201773E0,-3.593217814E-3,1.050417304E0,9.744806290E0
2.102714898E0,-2.275704592E-2,1.088744998E0,9.696897507E0
2.105228075E0,-7.066661865E-2,1.083954096E0,9.682524681E0
2.107741200E0,-8.384174667E-3,1.088744998E0,9.763371468E0
2.110254325E0,2.934461273E-2,1.079163074E0,9.753789902E0
2.112767502E0,-2.275704592E-2,1.069581151E0,9.730433464E0
2.115280627E0,-3.712991625E-2,1.122281671E0,9.711270332E0
2.117793752E0,-4.192087334E-3,1.141445518E0,9.649586678E0
2.120306929E0,-1.317513175E-2,1.131863594E0,9.673541069E0
2.122820054E0,2.934461273E-2,1.103117824E0,9.592694283E0
2.125333179E0,-2.275704592E-2,1.055208325E0,9.625631332E0
2.127846357E0,-1.317513175E-2,1.050417304E0,9.625631332E0
2.130359482E0,3.892652690E-2,9.833439589E-1,9.554366112E0
2.132872607E0,7.246322930E-2,1.040835381E0,9.516637802E0
2.135385784E0,5.809035525E-2,9.737620354E-1,9.511846542E0
2.137898909E0,8.204513788E-2,9.737620354E-1,9.483100891E0
2.140412034E0,1.059999242E-1,9.737620354E-1,9.544784546E0
2.142925211E0,1.197739244E-1,9.545981884E-1,9.516637802E0
2.145438336E0,1.149829701E-1,9.545981884E-1,9.521428108E0
2.147951461E0,1.533106267E-1,9.641801119E-1,9.597484589E0
2.150464638E0,1.724744588E-1,9.402253032E-1,9.601676941E0
2.152977763E0,2.012201995E-1,9.593891501E-1,9.620841026E0
2.155490888E0,1.916382909E-1,9.450162649E-1,9.706479073E0
2.158004065E0,1.820563674E-1,9.120784402E-1,9.682524681E0
2.160517190E0,2.108021080E-1,9.168694019E-1,9.758581161E0
2.163030315E0,2.155930698E-1,9.402253032E-1,9.753789902E0
2.165543492E0,1.676834971E-1,9.168694019E-1,9.806489944E0
2.168056617E0,1.437287182E-1,8.977055550E-1,9.849010468E0
2.170569742E0,1.389377564E-1,8.977055550E-1,9.905902863E0
2.173082919E0,1.533106267E-1,9.120784402E-1,9.953812599E0
2.175596044E0,1.437287182E-1,9.450162649E-1,9.915484428E0
2.178109169E0,1.293558478E-1,9.593891501E-1,9.958602905E0
2.180622346E0,1.772654057E-1,9.881349206E-1,1.001070499E1
2.183135471E0,1.533106267E-1,9.498072267E-1,9.905902863E0
2.185648596E0,8.204513788E-2,9.360332489E-1,9.925066948E0
2.188161773E0,9.162705392E-2,9.216603637E-1,9.905902863E0
2.190674898E0,1.149829701E-1,9.498072267E-1,9.915484428E0
2.193188075E0,9.162705392E-2,9.072874784E-1,9.839427948E0
2.195701200E0,8.683609962E-2,9.545981884E-1,9.772953987E0
2.198214325E0,9.162705392E-2,9.737620354E-1,9.806489944E0
2.200727502E0,8.683609962E-2,1.002507806E0,9.659168243E0
2.203240627E0,9.162705392E-2,9.641801119E-1,9.640004158E0
2.205753752E0,9.162705392E-2,9.929258823E-1,9.601676941E0
2.208266929E0,1.389377564E-1,1.055208325E0,9.625631332E0
2.210780054E0,1.101920158E-1,1.012089729E0,9.563947678E0
2.213293179E0,1.054010540E-1,1.021671653E0,9.516637802E0
2.215806357E0,1.012089700E-1,1.021671653E0,9.516637802E0
2.218319482E0,1.293558478E-1,1.012089729E0,9.511846542E0
2.220832607E0,9.162705392E-2,1.021671653E0,9.525620461E0
2.223345784E0,6.767226756E-2,1.074372172E0,9.516637802E0
2.225858909E0,8.683609962E-2,1.059999228E0,9.583111763E0
2.228372034E0,2.934461273E-2,1.055208325E0,9.587903023E0
2.230885211E0,8.683609962E-2,1.021671653E0,9.520829201E0
2.233398336E0,4.371748492E-2,1.007298708E0,9.559157372E0
2.235911461E0,5.809035525E-2,1.007298708E0,9.578320503E0
2.238424638E0,1.293558478E-1,1.036044478E0,9.659168243E0
2.240937763E0,1.101920158E-1,1.012089729E0,9.696897507E0
2.243450888E0,1.293558478E-1,1.002507806E0,9.716060638E0
2.245964065E0,1.293558478E-1,1.026462555E0,9.758581161E0
2.248477190E0,1.389377564E-1,1.016880631E0,9.815473557E0
2.250990315E0,1.293558478E-1,9.689710736E-1,9.829846382E0
2.253503492E0,1.964292377E-1,8.785417676E-1,9.872964859E0
2.256016617E0,1.581015885E-1,9.504061341E-1,9.920275688E0
2.258529742E0,1.772654057E-1,9.072874784E-1,9.981959343E0
2.261042919E0,1.964292377E-1,8.929146528E-1,1.005322456E1
2.263556044E0,1.772654057E-1,8.450050354E-1,1.004843330E1
2.266069169E0,1.916382909E-1,8.306322098E-1,1.008676147E1
2.268582346E0,2.060111612E-1,8.450050354E-1,1.009155178E1
2.271095471E0,1.628925353E-1,8.354231715E-1,1.006759739E1
2.273608596E0,1.341467947E-1,8.450050354E-1,1.004364300E1
2.276121773E0,1.006100997E-1,8.881236911E-1,1.000112247E1
2.278634898E0,1.101920158E-1,8.450050354E-1,1.000591373E1
2.281148023E0,1.006100997E-1,8.545869589E-1,9.949021339E0
2.283661200E0,1.581015885E-1,8.977055550E-1,9.896320343E0
2.286174325E0,1.724744588E-1,9.264513254E-1,9.896320343E0
2.288687450E0,1.197739244E-1,9.312422872E-1,9.896320343E0
2.291200627E0,1.341467947E-1,9.551970959E-1,9.839427948E0
2.293713752E0,1.724744588E-1,9.593891501E-1,9.768162727E0
2.296226877E0,1.581015885E-1,9.641801119E-1,9.716060638E0
2.298740054E0,1.533106267E-1,1.002507806E0,9.716060638E0
2.301253179E0,1.581015885E-1,9.024965167E-1,9.716060638E0
2.303766304E0,1.485196650E-1,9.599879980E-1,9.682524681E0
2.306279482E0,1.389377564E-1,9.977167845E-1,9.668151855E0
2.308792607E0,1.724744588E-1,9.881349206E-1,9.687314987E0
2.311305732E0,1.533106267E-1,9.689710736E-1,9.677733421E0
2.313818909E0,1.389377564E-1,9.504061341E-1,9.625631332E0
2.316332034E0,1.485196650E-1,9.641801119E-1,9.573530197E0
2.318845159E0,1.149829701E-1,9.360332489E-1,9.606468201E0
2.321358336E0,1.341467947E-1,9.312422872E-1,9.640004158E0
2.323871461E0,1.245648861E-1,9.360332489E-1,9.654376984E0
2.326384586E0,1.628925353E-1,8.977055550E-1,9.592095375E0
2.328897763E0,1.581015885E-1,9.551970959E-1,9.554366112E0
2.331410888E0,1.533106267E-1,9.881349206E-1,9.606468201E0
2.333924013E0,1.485196650E-1,9.599879980E-1,9.559157372E0
2.336437190E0,1.868473291E-1,9.881349206E-1,9.587304115E0
2.338950315E0,1.485196650E-1,9.833439589E-1,9.596885681E0
2.341463440E0,1.628925353E-1,9.647789598E-1,9.640004158E0
2.343976617E0,1.485196650E-1,9.599879980E-1,9.644795418E0
2.346489742E0,1.341467947E-1,9.695699215E-1,9.644795418E0
2.349002867E0,1.101920158E-1,1.002507806E0,9.682524681E0
2.351516044E0,1.628925353E-1,9.929258823E-1,9.725643158E0
2.354029169E0,1.341467947E-1,1.021671653E0,9.744207382E0
2.356542294E0,1.101920158E-1,1.002507806E0,9.696897507E0
2.359055471E0,8.623722941E-2,9.833439589E-1,9.725643158E0
2.361568596E0,1.054010540E-1,1.016880631E0,9.720851898E0
2.364081721E0,1.293558478E-1,9.737620354E-1,9.725643158E0
2.366594898E0,1.149829701E-1,9.456151724E-1,9.729834557E0
2.369108023E0,1.245648861E-1,9.743608832E-1,9.706479073E0
2.371621148E0,1.437287182E-1,9.977167845E-1,9.720851898E0
2.374134325E0,1.389377564E-1,9.977167845E-1,9.677733421E0
2.376647450E0,1.341467947E-1,1.002507806E0,9.649586678E0
2.379160575E0,2.245761156E-1,9.695699215E-1,9.606468201E0
2.381673752E0,1.676834971E-1,9.504061341E-1,9.573530197E0
2.384186877E0,1.293558478E-1,9.695699215E-1,9.582512856E0
2.386700002E0,1.293558478E-1,9.977167845E-1,9.596885681E0
2.389213179E0,1.868473291E-1,9.929258823E-1,9.535202026E0
2.391726304E0,1.389377564E-1,9.881349206E-1,9.492682457E0
2.394239429E0,1.197739244E-1,9.408242106E-1,9.506456375E0
2.396752607E0,1.197739244E-1,9.929258823E-1,9.506456375E0
2.399265732E0,9.102818370E-2,9.881349206E-1,9.478309631E0
2.401778857E0,9.102818370E-2,9.743608832E-1,9.544784546E0
2.404292034E0,1.054010540E-1,1.040835381E0,9.554366112E0
2.406805159E0,1.101920158E-1,9.833439589E-1,9.549574852E0
2.409318284E0,9.581914544E-2,9.791518450E-1,9.544784546E0
2.411831461E0,1.054010540E-1,9.695699215E-1,9.535202026E0
2.414344586E0,3.413556889E-2,9.929258823E-1,9.606468201E0
2.416857711E0,6.707339734E-2,1.040835381E0,9.611258507E0
2.419370888E0,8.623722941E-2,1.045626402E0,9.620841026E0
2.421884013E0,6.707339734E-2,1.026462555E0,9.658569336E0
2.424397190E0,7.665531337E-2,9.791518450E-1,9.672942162E0
2.426910315E0,6.288131326E-2,1.002507806E0,9.635213852E0
2.429423440E0,9.102818370E-2,1.007298708E0,9.716060638E0
2.431936617E0,6.228244305E-2,1.002507806E0,9.725044250E0
2.434449742E0,5.809035525E-2,9.312422872E-1,9.711270332E0
2.436962867E0,9.581914544E-2,9.264513254E-1,9.711270332E0
2.439476044E0,7.186435908E-2,9.168694019E-1,9.729834557E0
2.441989169E0,1.293558478E-1,9.695699215E-1,9.744207382E0
2.444502294E0,9.102818370E-2,9.839428067E-1,9.739417076E0
2.447015471E0,1.101920158E-1,9.887337685E-1,9.734625816E0
2.449528596E0,1.245648861E-1,1.021671653E0,9.772953987E0
2.452041721E0,1.341467947E-1,1.074372172E0,9.787326813E0
2.454554898E0,1.676834971E-1,1.036044478E0,9.820263863E0
2.457068023E0,9.102818370E-2,1.021671653E0,9.853800774E0
2.459581148E0,9.581914544E-2,9.977167845E-1,9.849010468E0
2.462094325E0,1.533106267E-1,9.887337685E-1,9.825055122E0
2.464607450E0,1.054010540E-1,9.791518450E-1,9.881947517E0
2.467120575E0,9.581914544E-2,9.647789598E-1,9.834636688E0
2.469633752E0,8.144626766E-2,9.312422872E-1,9.881947517E0
2.472146877E0,1.054010540E-1,9.599879980E-1,9.881947517E0
2.474660002E0,1.006100997E-1,9.168694019E-1,9.839427948E0
2.477173179E0,1.197739244E-1,9.072874784E-1,9.849010468E0
2.479686304E0,1.293558478E-1,9.695699215E-1,9.782535553E0
2.482199429E0,1.197739244E-1,9.695699215E-1,9.787326813E0
2.484712607E0,1.293558478E-1,9.839428067E-1,9.787326813E0
2.487225732E0,1.054010540E-1,9.743608832E-1,9.711270332E0
2.489738857E0,1.197739244E-1,9.695699215E-1,9.692106247E0
2.492252034E0,1.101920158E-1,9.887337685E-1,9.682524681E0
2.494765159E0,7.665531337E-2,1.002507806E0,9.635213852E0
2.497278284E0,1.006100997E-1,9.935247302E-1,9.616049767E0
2.499791461E0,3.892652690E-2,1.021671653E0,9.640004158E0
2.502304586E0,3.413556889E-2,1.050417304E0,9.620841026E0
2.504817711E0,2.934461273E-2,1.064790249E0,9.677733421E0
2.507330888E0,1.018078346E-2,1.021671653E0,9.696897507E0
2.509844013E0,-2.814687230E-2,1.036044478E0,9.663360596E0
2.512357138E0,5.389826838E-3,1.036044478E0,9.644196510E0
2.514870315E0,-1.377400197E-2,1.031253457E0,9.763371468E0
2.517383440E0,-1.377400197E-2,1.059999228E0,9.739417076E0
2.519896565E0,-4.192087334E-3,1.045626402E0,9.729834557E0
2.522409742E0,-2.335591614E-2,1.079163074E0,9.687314987E0
2.524922867E0,-1.856495813E-2,1.050417304E0,9.796309471E0
2.527435992E0,6.228244305E-2,1.040835381E0,9.701687813E0
2.529949169E0,7.665531337E-2,1.003106594E0,9.706479073E0
2.532462294E0,7.665531337E-2,9.887337685E-1,9.677733421E0
2.534975419E0,8.144626766E-2,1.007897615E0,9.715461731E0
2.537488596E0,9.102818370E-2,9.791518450E-1,9.768162727E0
2.540001825E0,9.581914544E-2,9.360332489E-1,9.715461731E0
2.542515054E0,1.341467947E-1,9.599879980E-1,9.706479073E0
2.545028336E0,1.628925353E-1,9.120784402E-1,9.734625816E0
2.547541565E0,1.814575046E-1,8.881236911E-1,9.739417076E0
2.550054794E0,2.437399477E-1,8.306322098E-1,9.644196510E0
2.552568075E0,2.197851539E-1,8.641688824E-1,9.663360596E0
2.555081304E0,2.341580242E-1,8.545869589E-1,9.687314987E0
2.557594534E0,2.293670774E-1,8.450050354E-1,9.692106247E0
2.560107815E0,2.581128180E-1,8.114683628E-1,9.744207382E0
2.562621044E0,2.581128180E-1,7.881124616E-1,9.748998642E0
2.565134273E0,2.910506427E-1,7.737395763E-1,9.696897507E0
2.567647554E0,3.150054216E-1,7.689486146E-1,9.672942162E0
2.570160784E0,3.533330858E-1,6.922932863E-1,9.739417076E0
2.572674013E0,3.245873451E-1,7.354119420E-1,9.781936646E0
2.575187294E0,3.533330858E-1,6.779204011E-1,9.810682297E0
2.577700523E0,3.293783069E-1,6.970842481E-1,9.796309471E0
2.580213752E0,3.820788264E-1,7.354119420E-1,9.796309471E0
2.582727034E0,3.485421240E-1,7.162480950E-1,9.758581161E0
2.585240263E0,3.197963834E-1,7.881124616E-1,9.801100731E0
2.587753492E0,2.862596810E-1,8.114683628E-1,9.772953987E0
2.590266773E0,2.958416045E-1,7.497847676E-1,9.801100731E0
2.592780002E0,2.724856734E-1,8.114683628E-1,9.820263863E0
2.595293232E0,2.245761156E-1,8.593779206E-1,9.758581161E0
2.597806513E0,2.293670774E-1,8.402140737E-1,9.772953987E0
2.600319742E0,2.054122835E-1,8.354231715E-1,9.734625816E0
2.602832971E0,1.814575046E-1,8.545869589E-1,9.720252991E0
2.605346252E0,1.533106267E-1,8.593779206E-1,9.682524681E0
2.607859482E0,2.054122835E-1,8.881236911E-1,9.672942162E0
2.610372711E0,1.814575046E-1,8.833327293E-1,9.692106247E0
2.612885992E0,1.958303750E-1,9.216603637E-1,9.663360596E0
2.615399221E0,2.341580242E-1,9.072874784E-1,9.734625816E0
2.617912450E0,2.006213218E-1,9.120784402E-1,9.710671425E0
2.620425732E0,1.670846343E-1,8.545869589E-1,9.677733421E0
2.622938961E0,2.006213218E-1,8.306322098E-1,9.634614944E0
2.625452190E0,2.533218563E-1,8.545869589E-1,9.696897507E0
2.627965471E0,2.341580242E-1,8.689598441E-1,9.648987770E0
2.630478700E0,2.533218563E-1,8.258412480E-1,9.639405251E0
2.632991929E0,2.245761156E-1,7.593666911E-1,9.692106247E0
2.635505211E0,2.485308945E-1,8.593779206E-1,9.682524681E0
2.638018440E0,2.958416045E-1,8.210502863E-1,9.682524681E0
2.640531669E0,2.958416045E-1,8.545869589E-1,9.663360596E0
2.643044898E0,2.533218563E-1,7.785305381E-1,9.705880165E0
2.645558179E0,3.054235280E-1,8.114683628E-1,9.682524681E0
2.648071409E0,2.910506427E-1,8.258412480E-1,9.715461731E0
2.650584638E0,2.293670774E-1,8.306322098E-1,9.725044250E0
2.653097919E0,2.006213218E-1,7.929034233E-1,9.777145386E0
2.655611148E0,2.102032453E-1,8.072762489E-1,9.801100731E0
2.658124377E0,1.958303750E-1,8.593779206E-1,9.791518211E0
2.660637659E0,1.527117640E-1,8.306322098E-1,9.768162727E0
2.663150888E0,1.814575046E-1,8.402140737E-1,9.801100731E0
2.665664117E0,1.622936726E-1,8.641688824E-1,9.886738777E0
2.668177398E0,1.389377564E-1,8.641688824E-1,9.829846382E0
2.670690627E0,1.341467947E-1,8.881236911E-1,9.834636688E0
2.673203857E0,1.197739244E-1,9.264513254E-1,9.867574692E0
2.675717138E0,1.431298405E-1,9.456151724E-1,9.853201866E0
2.678230367E0,1.149829701E-1,9.408242106E-1,9.844219208E0
2.680743596E0,1.149829701E-1,9.360332489E-1,9.867574692E0
2.683256877E0,1.389377564E-1,9.312422872E-1,9.867574692E0
2.685770107E0,9.581914544E-2,9.072874784E-1,9.857993126E0
2.688283336E0,1.101920158E-1,9.408242106E-1,9.839427948E0
2.690796617E0,1.006100997E-1,9.743608832E-1,9.815473557E0
2.693309846E0,1.718755811E-1,9.360332489E-1,9.843620300E0
2.695823075E0,1.431298405E-1,9.551970959E-1,9.825055122E0
2.698336357E0,1.054010540E-1,9.504061341E-1,9.805891037E0
2.700849586E0,6.707339734E-2,9.168694019E-1,9.777145386E0
2.703362815E0,1.293558478E-1,8.402140737E-1,9.739417076E0
2.705876096E0,1.341467947E-1,9.120784402E-1,9.744207382E0
2.708389325E0,1.149829701E-1,9.168694019E-1,9.715461731E0
2.710902554E0,1.245648861E-1,9.216603637E-1,9.672942162E0
2.713415836E0,8.623722941E-2,9.456151724E-1,9.668151855E0
2.715929065E0,1.431298405E-1,9.312422872E-1,9.677733421E0
2.718442294E0,1.383388788E-1,9.695699215E-1,9.701088905E0
2.720955575E0,1.293558478E-1,9.168694019E-1,9.734625816E0
2.723468804E0,1.335479319E-1,8.833327293E-1,9.663360596E0
2.725982034E0,1.383388788E-1,9.264513254E-1,9.629823685E0
2.728495315E0,1.958303750E-1,9.264513254E-1,9.606468201E0
2.731008544E0,1.527117640E-1,9.264513254E-1,9.658569336E0
2.733521773E0,1.149829701E-1,9.360332489E-1,9.672942162E0
2.736035054E0,1.197739244E-1,8.833327293E-1,9.715461731E0
2.738548284E0,1.054010540E-1,9.072874784E-1,9.772355080E0
2.741061513E0,1.527117640E-1,9.024965167E-1,9.772355080E0
2.743574794E0,1.383388788E-1,9.120784402E-1,9.772355080E0
2.746088023E0,1.101920158E-1,8.929146528E-1,9.820263863E0
2.748601252E0,9.102818370E-2,8.929146528E-1,9.843620300E0
2.751114534E0,8.623722941E-2,9.504061341E-1,9.886738777E0
2.753627763E0,1.006100997E-1,9.072874784E-1,9.857993126E0
2.756140992E0,9.581914544E-2,8.929146528E-1,9.872365952E0
2.758654273E0,7.186435908E-2,8.977055550E-1,9.810682297E0
2.761167502E0,1.149829701E-1,8.929146528E-1,9.796309471E0
2.763680732E0,1.101920158E-1,8.929146528E-1,9.805891037E0
2.766194013E0,1.479208022E-1,8.929146528E-1,9.825055122E0
2.768707242E0,1.575027108E-1,8.264400959E-1,9.815473557E0
2.771220471E0,1.383388788E-1,8.545869589E-1,9.820263863E0
2.773733700E0,1.862484515E-1,8.641688824E-1,9.744207382E0
2.776246982E0,2.006213218E-1,8.737508059E-1,9.772355080E0
2.778760211E0,1.958303750E-1,8.497959971E-1,9.815473557E0
2.781273440E0,2.102032453E-1,8.641688824E-1,9.734625816E0
2.783786721E0,2.245761156E-1,8.360220194E-1,9.705880165E0
2.786299950E0,2.006213218E-1,8.312310576E-1,9.715461731E0
2.788813179E0,1.862484515E-1,8.881236911E-1,9.720252991E0
2.791326461E0,1.910394132E-1,8.785417676E-1,9.696298599E0
2.793839690E0,1.718755811E-1,8.593779206E-1,9.691507339E0
2.796352919E0,1.814575046E-1,8.929146528E-1,9.677733421E0
2.798866200E0,1.335479319E-1,9.072874784E-1,9.625032425E0
2.801379429E0,9.102818370E-2,9.120784402E-1,9.648987770E0
2.803892659E0,9.581914544E-2,9.743608832E-1,9.625032425E0
2.806405940E0,1.101920158E-1,9.408242106E-1,9.639405251E0
2.808919169E0,3.353669867E-2,9.312422872E-1,9.620242119E0
2.811432398E0,7.665531337E-2,9.599879980E-1,9.710671425E0
2.813945679E0,9.581914544E-2,9.312422872E-1,9.710671425E0
2.816458909E0,7.186435908E-2,9.216603637E-1,9.682524681E0
2.818972138E0,7.186435908E-2,9.647789598E-1,9.725044250E0
2.821485419E0,5.749148503E-2,9.839428067E-1,9.796309471E0
2.823998648E0,7.665531337E-2,9.791518450E-1,9.767563820E0
2.826511877E0,1.191750541E-1,9.024965167E-1,9.810682297E0
2.829025159E0,1.383388788E-1,9.408242106E-1,9.853201866E0
2.831538388E0,9.102818370E-2,9.360332489E-1,9.857993126E0
2.834051617E0,1.239660159E-1,8.977055550E-1,9.801100731E0
2.836564898E0,1.431298405E-1,9.168694019E-1,9.872365952E0
2.839078127E0,1.670846343E-1,8.593779206E-1,9.867574692E0
2.841591357E0,1.527117640E-1,9.072874784E-1,9.796309471E0
2.844104638E0,1.101920158E-1,9.312422872E-1,9.853201866E0
2.846617867E0,1.287569702E-1,8.785417676E-1,9.848411560E0
2.849131096E0,1.101920158E-1,8.641688824E-1,9.881947517E0
2.851644377E0,1.383388788E-1,8.689598441E-1,9.843620300E0
2.854157607E0,1.527117640E-1,8.689598441E-1,9.843620300E0
2.856670836E0,1.622936726E-1,8.689598441E-1,9.801100731E0
2.859184117E0,1.622936726E-1,8.456039429E-1,9.834038734E0
2.861697346E0,1.575027108E-1,9.456151724E-1,9.825055122E0
2.864210575E0,1.622936726E-1,9.504061341E-1,9.791518211E0
2.866723857E0,1.575027108E-1,8.977055550E-1,9.748998642E0
2.869237086E0,1.718755811E-1,9.551970959E-1,9.781936646E0
2.871750315E0,1.335479319E-1,9.216603637E-1,9.734625816E0
2.874263596E0,1.191750541E-1,9.216603637E-1,9.753789902E0
2.876776825E0,1.095931455E-1,8.881236911E-1,9.748998642E0
2.879290054E0,1.006100997E-1,8.977055550E-1,9.781936646E0
2.881803336E0,5.270052701E-2,9.216603637E-1,9.753789902E0
2.884316565E0,9.102818370E-2,9.360332489E-1,9.757982254E0
2.886829794E0,1.287569702E-1,9.599879980E-1,9.772355080E0
2.889343075E0,6.707339734E-2,9.360332489E-1,9.734625816E0
2.891856304E0,5.749148503E-2,9.072874784E-1,9.767563820E0
2.894369534E0,9.581914544E-2,9.504061341E-1,9.725044250E0
2.896882815E0,1.383388788E-1,9.551970959E-1,9.663360596E0
2.899396044E0,1.287569702E-1,9.216603637E-1,9.710671425E0
2.901909273E0,1.383388788E-1,8.929146528E-1,9.710671425E0
2.904422554E0,1.431298405E-1,9.216603637E-1,9.677733421E0
2.906935784E0,1.622936726E-1,9.168694019E-1,9.677733421E0
2.909449013E0,1.383388788E-1,9.168694019E-1,9.677733421E0
2.911962242E0,1.383388788E-1,8.929146528E-1,9.668151855E0
2.914475523E0,1.383388788E-1,8.881236911E-1,9.696298599E0
2.916988752E0,1.383388788E-1,8.785417676E-1,9.686716080E0
2.919501982E0,1.527117640E-1,8.737508059E-1,9.734625816E0
2.922015263E0,1.335479319E-1,8.881236911E-1,9.757982254E0
2.924528492E0,1.527117640E-1,8.929146528E-1,9.729834557E0
2.927041721E0,1.479208022E-1,8.551858664E-1,9.744207382E0
2.929555002E0,1.479208022E-1,8.881236911E-1,9.796309471E0
2.932068232E0,1.814575046E-1,8.785417676E-1,9.805891037E0
2.934581461E0,1.670846343E-1,8.689598441E-1,9.834038734E0
2.937094742E0,1.718755811E-1,8.216491342E-1,9.801100731E0
2.939607971E0,1.095931455E-1,8.503949046E-1,9.786727905E0
2.942121200E0,1.431298405E-1,8.072762489E-1,9.824456215E0
2.944634482E0,1.910394132E-1,8.503949046E-1,9.767563820E0
2.947147711E0,1.814575046E-1,8.168581724E-1,9.772355080E0
2.949660940E0,1.814575046E-1,7.737395763E-1,9.720252991E0
2.952174221E0,2.149941921E-1,8.264400959E-1,9.720252991E0
2.954687450E0,2.006213218E-1,8.072762489E-1,9.696298599E0
2.957200679E0,1.862484515E-1,8.072762489E-1,9.686716080E0
2.959713961E0,2.383501083E-1,8.503949046E-1,9.677134514E0
2.962227190E0,2.431410700E-1,8.881236911E-1,9.639405251E0
2.964740419E0,1.766665429E-1,7.593666911E-1,9.686716080E0
2.967253700E0,2.102032453E-1,8.168581724E-1,9.658569336E0
2.969766929E0,2.054122835E-1,8.456039429E-1,9.681925774E0
2.972280159E0,2.054122835E-1,8.551858664E-1,9.720252991E0
2.974793440E0,2.006213218E-1,8.264400959E-1,9.710671425E0
2.977306669E0,1.383388788E-1,8.647677302E-1,9.691507339E0
2.979819898E0,1.527117640E-1,8.408129811E-1,9.729834557E0
2.982333179E0,1.958303750E-1,8.168581724E-1,9.686716080E0
2.984846409E0,2.054122835E-1,7.976943254E-1,9.705880165E0
2.987359638E0,1.000112295E-1,8.264400959E-1,9.734625816E0
2.989872919E0,1.575027108E-1,8.360220194E-1,9.691507339E0
2.992386148E0,1.862484515E-1,8.360220194E-1,9.720252991E0
2.994899377E0,1.575027108E-1,8.833327293E-1,9.734625816E0
2.997412659E0,1.814575046E-1,8.264400959E-1,9.725044250E0
2.999925888E0,2.006213218E-1,8.216491342E-1,9.739417076E0
3.002439117E0,1.814575046E-1,8.503949046E-1,9.772355080E0
3.004952398E0,2.096043676E-1,8.599767685E-1,9.739417076E0
3.007465627E0,1.958303750E-1,8.312310576E-1,9.677134514E0
3.009978857E0,1.958303750E-1,8.072762489E-1,9.681925774E0
3.012492138E0,1.718755811E-1,7.689486146E-1,9.696298599E0
3.015005367E0,2.048134208E-1,7.881124616E-1,9.710671425E0
3.017518596E0,1.431298405E-1,8.360220194E-1,9.743609428E0
3.020031877E0,1.485196650E-1,8.114683628E-1,9.740015984E0
3.022545107E0,1.389377564E-1,7.779316306E-1,9.668749809E0
3.025058336E0,1.437287182E-1,8.162593246E-1,9.706479073E0
3.027571617E0,1.107908860E-1,8.210502863E-1,9.682524681E0
3.030084846E0,1.059999242E-1,8.210502863E-1,9.682524681E0
3.032598075E0,7.725418359E-2,8.354231715E-1,9.668749809E0
3.035111357E0,1.059999242E-1,8.593779206E-1,9.635213852E0
3.037624586E0,1.203727946E-1,8.737508059E-1,9.668749809E0
3.040137815E0,1.299547106E-1,8.354231715E-1,9.649586678E0
3.042651096E0,1.251637489E-1,9.024965167E-1,9.602275848E0
3.045164325E0,1.203727946E-1,9.210615158E-1,9.592694283E0
3.047677554E0,1.155818403E-1,8.737508059E-1,9.554366112E0
3.050190836E0,1.389377564E-1,8.929146528E-1,9.587903023E0
3.052704065E0,1.676834971E-1,8.881236911E-1,9.602275848E0
3.055217346E0,1.437287182E-1,8.785417676E-1,9.620841026E0
3.057730575E0,1.820563674E-1,8.162593246E-1,9.644795418E0
3.060243804E0,2.203840315E-1,8.977055550E-1,9.635213852E0
3.062757086E0,1.868473291E-1,8.114683628E-1,9.706479073E0
3.065270315E0,1.676834971E-1,8.402140737E-1,9.668749809E0
3.067783596E0,2.108021080E-1,8.114683628E-1,9.749597549E0
3.070296825E0,1.868473291E-1,7.827225924E-1,9.753789902E0
3.072810107E0,2.012201995E-1,8.018864393E-1,9.787326813E0
3.075323336E0,2.251749784E-1,7.300220728E-1,9.806489944E0
3.077836565E0,2.299659401E-1,7.300220728E-1,9.806489944E0
3.080349846E0,1.916382909E-1,7.539768815E-1,9.925066948E0
3.082863075E0,1.916382909E-1,7.923045158E-1,9.901111603E0
3.085376357E0,1.772654057E-1,8.162593246E-1,9.877756119E0
3.087889586E0,1.676834971E-1,8.306322098E-1,9.834636688E0
3.090402815E0,1.581015885E-1,8.258412480E-1,9.834636688E0
3.092916096E0,1.820563674E-1,8.497959971E-1,9.839427948E0
3.095429325E0,1.964292377E-1,8.497959971E-1,9.796908379E0
3.097942607E0,1.724744588E-1,8.785417676E-1,9.787326813E0
3.100455836E0,1.437287182E-1,8.881236911E-1,9.792117119E0
3.102969065E0,1.772654057E-1,8.881236911E-1,9.744806290E0
3.105482346E0,1.389377564E-1,9.785529971E-1,9.768162727E0
3.107995575E0,1.389377564E-1,9.306434393E-1,9.811281204E0
3.110508857E0,1.251637489E-1,9.545981884E-1,9.758581161E0
3.113022086E0,4.371748492E-2,9.737620354E-1,9.740015984E0
3.115535367E0,6.767226756E-2,9.306434393E-1,9.740015984E0
3.118048596E0,6.288131326E-2,9.593891501E-1,9.716060638E0
3.120561825E0,2.455365472E-2,9.737620354E-1,9.768162727E0
3.123075107E0,3.413556889E-2,9.545981884E-1,9.706479073E0
3.125588336E0,1.497174054E-2,9.977167845E-1,9.744806290E0
3.128101617E0,2.455365472E-2,9.498072267E-1,9.768162727E0
3.130614846E0,1.976269856E-2,9.545981884E-1,9.792117119E0
3.133128075E0,8.204513788E-2,9.593891501E-1,9.720851898E0
3.135641357E0,1.018078346E-2,9.929258823E-1,9.735224724E0
3.138154586E0,5.329939723E-2,9.354343414E-1,9.701687813E0
3.140667867E0,8.683609962E-2,9.593891501E-1,9.768162727E0
3.143181096E0,6.288131326E-2,9.306434393E-1,9.763371468E0
3.145694325E0,1.059999242E-1,9.402253032E-1,9.763371468E0
3.148207607E0,9.162705392E-2,9.306434393E-1,9.801699638E0
3.150720836E0,9.162705392E-2,9.689710736E-1,9.792117119E0
3.153234117E0,9.641800821E-2,9.258524776E-1,9.787326813E0
3.155747346E0,1.107908860E-1,9.114795923E-1,9.858592033E0
3.158260627E0,1.107908860E-1,9.258524776E-1,9.796908379E0
3.160773857E0,1.012089700E-1,9.545981884E-1,9.768162727E0
3.163287086E0,1.251637489E-1,9.024965167E-1,9.829846382E0
3.165800367E0,1.107908860E-1,9.114795923E-1,9.816072464E0
3.168313596E0,1.107908860E-1,9.072874784E-1,9.820862770E0
3.170826877E0,8.683609962E-2,8.881236911E-1,9.758581161E0
3.173340107E0,8.204513788E-2,8.881236911E-1,9.753789902E0
3.175853336E0,7.725418359E-2,9.210615158E-1,9.696897507E0
3.178366617E0,5.329939723E-2,9.258524776E-1,9.687314987E0
3.180879846E0,9.162705392E-2,9.545981884E-1,9.611258507E0
3.183393127E0,2.934461273E-2,9.354343414E-1,9.630422592E0
3.185906357E0,1.018078346E-2,9.545981884E-1,9.663959503E0
3.188419638E0,2.934461273E-2,9.306434393E-1,9.602275848E0
3.190932867E0,4.850843921E-2,9.498072267E-1,9.597484589E0
3.193446096E0,3.892652690E-2,9.258524776E-1,9.616049767E0
3.195959377E0,8.204513788E-2,9.641801119E-1,9.640004158E0
3.198472607E0,1.059999242E-1,9.593891501E-1,9.616049767E0
3.200985888E0,8.683609962E-2,9.072874784E-1,9.649586678E0
3.203499117E0,7.246322930E-2,9.306434393E-1,9.663959503E0
3.206012346E0,1.251637489E-1,8.881236911E-1,9.706479073E0
3.208525627E0,1.012089700E-1,8.977055550E-1,9.711270332E0
3.211038857E0,1.533106267E-1,8.737508059E-1,9.772953987E0
3.213552138E0,1.533106267E-1,8.641688824E-1,9.740015984E0
3.216065367E0,1.676834971E-1,8.402140737E-1,9.749597549E0
3.218578596E0,1.581015885E-1,8.354231715E-1,9.749597549E0
3.221091877E0,1.676834971E-1,8.354231715E-1,9.758581161E0
3.223605107E0,1.251637489E-1,7.635588050E-1,9.744806290E0
3.226118388E0,1.676834971E-1,8.162593246E-1,9.725643158E0
3.228631617E0,1.964292377E-1,8.114683628E-1,9.768162727E0
3.231144898E0,1.820563674E-1,8.114683628E-1,9.763371468E0
3.233658127E0,1.341467947E-1,8.258412480E-1,9.744806290E0
3.236171357E0,1.389377564E-1,8.258412480E-1,9.753789902E0
3.238684638E0,1.059999242E-1,8.114683628E-1,9.740015984E0
3.241197867E0,1.012089700E-1,8.402140737E-1,9.716060638E0
3.243711148E0,8.204513788E-2,8.881236911E-1,9.749597549E0
3.246224377E0,8.204513788E-2,8.977055550E-1,9.720851898E0
3.248737607E0,7.246322930E-2,8.450050354E-1,9.763371468E0
3.251250888E0,9.641800821E-2,8.881236911E-1,9.758581161E0
3.253764117E0,9.162705392E-2,9.354343414E-1,9.725643158E0
3.256277398E0,5.809035525E-2,9.354343414E-1,9.749597549E0
3.258790627E0,6.767226756E-2,9.162705541E-1,9.716060638E0
3.261303857E0,6.767226756E-2,9.024965167E-1,9.777744293E0
3.263817138E0,1.059999242E-1,8.785417676E-1,9.749597549E0
3.266330367E0,1.107908860E-1,8.929146528E-1,9.716060638E0
3.268843648E0,9.162705392E-2,8.881236911E-1,9.654376984E0
3.271356877E0,1.293558478E-1,8.545869589E-1,9.668749809E0
3.273870159E0,1.820563674E-1,8.785417676E-1,9.740015984E0
3.276383388E0,1.485196650E-1,8.641688824E-1,9.696897507E0
3.278896617E0,1.107908860E-1,8.258412480E-1,9.744806290E0
3.281409898E0,1.389377564E-1,8.354231715E-1,9.735224724E0
3.283923127E0,1.251637489E-1,8.354231715E-1,9.706479073E0
3.286436409E0,1.293558478E-1,8.545869589E-1,9.730433464E0
3.288949638E0,1.251637489E-1,8.402140737E-1,9.735224724E0
3.291462867E0,1.203727946E-1,8.066774011E-1,9.720851898E0
3.293976148E0,1.820563674E-1,7.539768815E-1,9.730433464E0
3.296489377E0,1.628925353E-1,8.066774011E-1,9.768162727E0
3.299002659E0,1.107908860E-1,7.827225924E-1,9.744806290E0
3.301515888E0,1.059999242E-1,8.066774011E-1,9.740015984E0
3.304029117E0,1.533106267E-1,8.066774011E-1,9.744806290E0
3.306542398E0,1.389377564E-1,8.402140737E-1,9.730433464E0
3.309055627E0,1.389377564E-1,8.545869589E-1,9.806489944E0
3.311568909E0,1.389377564E-1,8.306322098E-1,9.725643158E0
3.314082138E0,1.437287182E-1,8.402140737E-1,9.716060638E0
3.316595419E0,1.341467947E-1,8.354231715E-1,9.777744293E0
3.319108648E0,1.341467947E-1,8.258412480E-1,9.753789902E0
3.321621877E0,1.012089700E-1,7.875135541E-1,9.706479073E0
3.324135159E0,1.059999242E-1,8.641688824E-1,9.730433464E0
3.326648388E0,9.641800821E-2,8.545869589E-1,9.740015984E0
3.329161669E0,8.683609962E-2,8.018864393E-1,9.758581161E0
3.331674898E0,1.341467947E-1,8.545869589E-1,9.730433464E0
3.334188127E0,8.683609962E-2,8.306322098E-1,9.706479073E0
3.336701409E0,9.162705392E-2,8.114683628E-1,9.673541069E0
3.339214638E0,1.107908860E-1,8.545869589E-1,9.682524681E0
3.341727919E0,1.155818403E-1,8.545869589E-1,9.682524681E0
3.344241148E0,1.389377564E-1,8.018864393E-1,9.678332329E0
3.346754377E0,1.437287182E-1,8.402140737E-1,9.701687813E0
3.349267659E0,1.437287182E-1,8.545869589E-1,9.663959503E0
3.351780888E0,1.485196650E-1,8.641688824E-1,9.611258507E0
3.354294169E0,1.533106267E-1,8.258412480E-1,9.663959503E0
3.356807398E0,1.772654057E-1,7.970954776E-1,9.659168243E0
3.359320679E0,1.251637489E-1,8.162593246E-1,9.659168243E0
3.361833909E0,1.437287182E-1,8.258412480E-1,9.692106247E0
3.364347138E0,1.820563674E-1,8.210502863E-1,9.711270332E0
3.366860419E0,1.820563674E-1,8.018864393E-1,9.730433464E0
3.369373648E0,1.628925353E-1,8.354231715E-1,9.735224724E0
3.371886929E0,1.293558478E-1,8.162593246E-1,9.768162727E0
3.374400159E0,1.155818403E-1,8.066774011E-1,9.792117119E0
3.376913388E0,1.485196650E-1,8.018864393E-1,9.844219208E0
3.379426669E0,1.293558478E-1,8.402140737E-1,9.872964859E0
3.381939898E0,1.293558478E-1,7.683497667E-1,9.863383293E0
3.384453179E0,1.341467947E-1,7.779316306E-1,9.834636688E0
3.386966409E0,1.485196650E-1,7.635588050E-1,9.816072464E0
3.389479638E0,1.820563674E-1,7.635588050E-1,9.811281204E0
3.391992919E0,1.772654057E-1,7.875135541E-1,9.777744293E0
3.394506148E0,1.964292377E-1,7.731407285E-1,9.806489944E0
3.397019429E0,1.916382909E-1,8.066774011E-1,9.772953987E0
3.399532659E0,1.533106267E-1,7.252311110E-1,9.753789902E0
3.402045940E0,2.203840315E-1,7.204401493E-1,9.744806290E0
3.404559169E0,1.868473291E-1,7.875135541E-1,9.716060638E0
3.407072398E0,1.724744588E-1,8.306322098E-1,9.701687813E0
3.409585679E0,2.251749784E-1,7.970954776E-1,9.716060638E0
3.412098909E0,2.108021080E-1,8.162593246E-1,9.701687813E0
3.414612190E0,2.012201995E-1,8.450050354E-1,9.706479073E0
3.417125419E0,1.964292377E-1,8.450050354E-1,9.696897507E0
3.419638648E0,1.772654057E-1,8.162593246E-1,9.725643158E0
3.422151929E0,1.251637489E-1,8.593779206E-1,9.696897507E0
3.424665159E0,1.628925353E-1,8.402140737E-1,9.687314987E0
3.427178440E0,1.203727946E-1,8.641688824E-1,9.716060638E0
3.429691669E0,1.389377564E-1,8.018864393E-1,9.692106247E0
3.432204898E0,1.437287182E-1,8.258412480E-1,9.701687813E0
3.434718179E0,1.341467947E-1,8.545869589E-1,9.687314987E0
3.437231409E0,1.341467947E-1,8.641688824E-1,9.687314987E0
3.439744690E0,8.683609962E-2,8.977055550E-1,9.644795418E0
3.442257919E0,1.293558478E-1,8.258412480E-1,9.611258507E0
3.444771200E0,1.581015885E-1,8.402140737E-1,9.668749809E0
3.447284429E0,9.641800821E-2,8.402140737E-1,9.682524681E0
3.449797659E0,1.341467947E-1,7.779316306E-1,9.725643158E0
3.452310940E0,1.203727946E-1,8.258412480E-1,9.720851898E0
3.454824169E0,1.059999242E-1,7.970954776E-1,9.635213852E0
3.457337450E0,1.628925353E-1,7.970954776E-1,9.687314987E0
3.459850679E0,1.533106267E-1,8.593779206E-1,9.730433464E0
3.462363909E0,1.772654057E-1,8.066774011E-1,9.659168243E0
3.464877190E0,1.868473291E-1,7.970954776E-1,9.720851898E0
3.467390419E0,1.581015885E-1,8.689598441E-1,9.711270332E0
3.469903700E0,1.724744588E-1,8.450050354E-1,9.682524681E0
3.472416929E0,1.772654057E-1,7.923045158E-1,9.654376984E0
3.474930159E0,1.964292377E-1,8.593779206E-1,9.701687813E0
3.477443440E0,1.628925353E-1,8.450050354E-1,9.696897507E0
3.479956669E0,1.724744588E-1,8.258412480E-1,9.740015984E0
3.482469950E0,1.724744588E-1,8.306322098E-1,9.654376984E0
3.484983179E0,1.628925353E-1,8.162593246E-1,9.663959503E0
3.487496461E0,1.964292377E-1,8.545869589E-1,9.682524681E0
3.490009690E0,1.772654057E-1,8.833327293E-1,9.696897507E0
3.492522919E0,1.251637489E-1,8.737508059E-1,9.740015984E0
3.495036200E0,1.341467947E-1,8.641688824E-1,9.711270332E0
3.497549429E0,1.203727946E-1,9.024965167E-1,9.673541069E0
3.500062711E0,1.437287182E-1,8.929146528E-1,9.711270332E0
3.502575940E0,1.012089700E-1,8.881236911E-1,9.744806290E0
3.505089169E0,7.725418359E-2,9.072874784E-1,9.692106247E0
3.507602450E0,6.767226756E-2,9.072874784E-1,9.682524681E0
3.510115679E0,7.725418359E-2,8.881236911E-1,9.659168243E0
3.512628961E0,6.288131326E-2,9.402253032E-1,9.725643158E0
3.515142190E0,8.683609962E-2,9.545981884E-1,9.706479073E0
3.517655419E0,1.203727946E-1,9.258524776E-1,9.706479073E0
3.520168700E0,1.107908860E-1,9.024965167E-1,9.720851898E0
3.522681929E0,1.293558478E-1,8.977055550E-1,9.753789902E0
3.525195211E0,1.293558478E-1,9.402253032E-1,9.740015984E0
3.527708440E0,1.628925353E-1,8.977055550E-1,9.782535553E0
3.530221721E0,1.628925353E-1,8.689598441E-1,9.758581161E0
3.532734950E0,1.964292377E-1,8.833327293E-1,9.740015984E0
3.535248179E0,1.820563674E-1,8.689598441E-1,9.753789902E0
3.537761409E0,1.485196650E-1,8.258412480E-1,9.787326813E0
3.540274534E0,1.628925353E-1,8.210502863E-1,9.782535553E0
3.542787711E0,1.964292377E-1,8.258412480E-1,9.834636688E0
3.545300888E0,1.628925353E-1,8.114683628E-1,9.801699638E0
3.547814013E0,1.437287182E-1,7.875135541E-1,9.758581161E0
3.550327190E0,1.724744588E-1,8.210502863E-1,9.806489944E0
3.552840367E0,1.203727946E-1,7.875135541E-1,9.768162727E0
3.555353544E0,1.437287182E-1,8.641688824E-1,9.849010468E0
3.557866669E0,1.437287182E-1,8.689598441E-1,9.816072464E0
3.560379846E0,1.533106267E-1,8.162593246E-1,9.792117119E0
3.562893023E0,1.628925353E-1,8.066774011E-1,9.811281204E0
3.565406200E0,1.107908860E-1,8.258412480E-1,9.872964859E0
3.567919325E0,1.251637489E-1,8.306322098E-1,9.910693169E0
3.570432502E0,1.389377564E-1,8.258412480E-1,9.872964859E0
3.572945679E0,1.485196650E-1,8.497959971E-1,9.882546425E0
3.575458857E0,1.437287182E-1,8.066774011E-1,9.892128944E0
3.577971982E0,1.437287182E-1,8.018864393E-1,9.892128944E0
3.580485159E0,1.916382909E-1,8.833327293E-1,9.887337685E0
3.582998336E0,1.868473291E-1,8.354231715E-1,9.901111603E0
3.585511513E0,1.820563674E-1,7.875135541E-1,9.905902863E0
3.588024638E0,2.012201995E-1,7.635588050E-1,9.853800774E0
3.590537815E0,2.108021080E-1,7.587678432E-1,9.910693169E0
3.593050992E0,2.155930698E-1,8.066774011E-1,9.877756119E0
3.595564169E0,1.772654057E-1,8.450050354E-1,9.868173599E0
3.598077294E0,1.964292377E-1,7.970954776E-1,9.811281204E0
3.600590471E0,2.155930698E-1,7.875135541E-1,9.834636688E0
3.603103648E0,2.060111612E-1,7.443949580E-1,9.829846382E0
3.605616825E0,1.964292377E-1,7.635588050E-1,9.863383293E0
3.608129950E0,1.772654057E-1,8.354231715E-1,9.896919250E0
3.610643127E0,2.299659401E-1,7.443949580E-1,9.792117119E0
3.613156304E0,1.868473291E-1,7.396039963E-1,9.782535553E0
3.615669482E0,1.964292377E-1,8.114683628E-1,9.796908379E0
3.618182607E0,1.964292377E-1,7.779316306E-1,9.787326813E0
3.620695784E0,1.676834971E-1,8.018864393E-1,9.749597549E0
3.623208961E0,1.628925353E-1,8.066774011E-1,9.816072464E0
3.625722086E0,1.485196650E-1,7.827225924E-1,9.825055122E0
3.628235263E0,1.341467947E-1,8.450050354E-1,9.863383293E0
3.630748440E0,1.389377564E-1,8.785417676E-1,9.829846382E0
3.633261617E0,1.059999242E-1,8.450050354E-1,9.753789902E0
3.635774742E0,1.203727946E-1,8.354231715E-1,9.777744293E0
3.638287919E0,9.641800821E-2,8.689598441E-1,9.753789902E0
3.640801096E0,8.683609962E-2,8.881236911E-1,9.725643158E0
3.643314273E0,3.892652690E-2,8.833327293E-1,9.744806290E0
3.645827398E0,3.413556889E-2,9.024965167E-1,9.711270332E0
3.648340575E0,7.725418359E-2,9.402253032E-1,9.668749809E0
3.650853752E0,5.809035525E-2,8.881236911E-1,9.644795418E0
3.653366929E0,1.197739271E-3,9.545981884E-1,9.668749809E0
3.655880054E0,4.371748492E-2,9.258524776E-1,9.706479073E0
3.658393232E0,5.329939723E-2,9.785529971E-1,9.616049767E0
3.660906409E0,2.455365472E-2,8.929146528E-1,9.640004158E0
3.663419586E0,3.892652690E-2,9.402253032E-1,9.692106247E0
3.665932711E0,4.371748492E-2,9.258524776E-1,9.682524681E0
3.668445888E0,4.850843921E-2,9.498072267E-1,9.701687813E0
3.670959065E0,1.251637489E-1,9.306434393E-1,9.720851898E0
3.673472242E0,1.012089700E-1,8.737508059E-1,9.711270332E0
3.675985367E0,1.155818403E-1,8.689598441E-1,9.740015984E0
3.678498544E0,1.724744588E-1,8.258412480E-1,9.744806290E0
3.681011721E0,1.772654057E-1,8.066774011E-1,9.816072464E0
3.683524898E0,1.533106267E-1,7.875135541E-1,9.839427948E0
3.686038023E0,1.868473291E-1,7.875135541E-1,9.796908379E0
3.688551200E0,2.060111612E-1,7.348130345E-1,9.753789902E0
3.691064377E0,1.772654057E-1,6.922932863E-1,9.839427948E0
3.693577502E0,1.628925353E-1,7.443949580E-1,9.858592033E0
3.696090679E0,2.012201995E-1,7.587678432E-1,9.811281204E0
3.698603857E0,1.916382909E-1,8.018864393E-1,9.753789902E0
3.701117034E0,1.628925353E-1,7.683497667E-1,9.753789902E0
3.703630159E0,1.485196650E-1,7.923045158E-1,9.740015984E0
3.706143336E0,1.341467947E-1,8.402140737E-1,9.730433464E0
3.708656513E0,1.389377564E-1,8.402140737E-1,9.720851898E0
3.711169690E0,1.107908860E-1,8.258412480E-1,9.701687813E0
3.713682815E0,1.107908860E-1,8.689598441E-1,9.620841026E0
3.716195992E0,9.641800821E-2,8.641688824E-1,9.659168243E0
3.718709169E0,8.204513788E-2,8.737508059E-1,9.620841026E0
3.721222346E0,1.107908860E-1,8.785417676E-1,9.663959503E0
3.723735471E0,9.641800821E-2,8.977055550E-1,9.673541069E0
3.726248648E0,3.892652690E-2,8.497959971E-1,9.616049767E0
3.728761825E0,9.641800821E-2,8.306322098E-1,9.659168243E0
3.731275002E0,1.155818403E-1,8.306322098E-1,9.696897507E0
3.733788127E0,8.683609962E-2,8.210502863E-1,9.692106247E0
3.736301304E0,1.059999242E-1,8.306322098E-1,9.654376984E0
3.738814482E0,1.155818403E-1,8.210502863E-1,9.701687813E0
3.741327659E0,1.251637489E-1,8.210502863E-1,9.678332329E0
3.743840784E0,1.389377564E-1,8.018864393E-1,9.687314987E0
3.746353961E0,1.533106267E-1,7.779316306E-1,9.654376984E0
3.748867138E0,2.108021080E-1,7.539768815E-1,9.696897507E0
3.751380315E0,1.581015885E-1,7.779316306E-1,9.720851898E0
3.753893440E0,1.772654057E-1,7.827225924E-1,9.725643158E0
3.756406617E0,1.724744588E-1,7.491859198E-1,9.692106247E0
3.758919794E0,1.533106267E-1,7.300220728E-1,9.696897507E0
3.761432971E0,1.533106267E-1,7.635588050E-1,9.696897507E0
3.763946096E0,1.389377564E-1,7.731407285E-1,9.753789902E0
3.766459273E0,1.772654057E-1,7.827225924E-1,9.782535553E0
3.768972450E0,1.155818403E-1,7.779316306E-1,9.744806290E0
3.771485575E0,1.533106267E-1,7.970954776E-1,9.777744293E0
3.773998752E0,1.581015885E-1,8.162593246E-1,9.768162727E0
3.776511929E0,1.437287182E-1,8.066774011E-1,9.782535553E0
3.779025107E0,1.155818403E-1,8.018864393E-1,9.782535553E0
3.781538232E0,1.012089700E-1,8.354231715E-1,9.806489944E0
3.784051409E0,8.204513788E-2,8.833327293E-1,9.796908379E0
3.786564586E0,1.012089700E-1,8.545869589E-1,9.758581161E0
3.789077763E0,6.767226756E-2,8.593779206E-1,9.772953987E0
3.791590888E0,9.162705392E-2,8.737508059E-1,9.820862770E0
3.794104065E0,8.683609962E-2,8.785417676E-1,9.820862770E0
3.796617242E0,1.251637489E-1,8.785417676E-1,9.787326813E0
3.799130419E0,1.203727946E-1,8.114683628E-1,9.782535553E0
3.801643544E0,1.389377564E-1,8.258412480E-1,9.763371468E0
3.804156721E0,6.288131326E-2,8.018864393E-1,9.725643158E0
3.806669898E0,1.203727946E-1,8.306322098E-1,9.716060638E0
3.809183075E0,1.341467947E-1,8.258412480E-1,9.673541069E0
3.811696200E0,1.581015885E-1,8.402140737E-1,9.649586678E0
3.814209377E0,1.155818403E-1,9.072874784E-1,9.692106247E0
3.816722554E0,8.204513788E-2,9.072874784E-1,9.649586678E0
3.819235732E0,9.162705392E-2,8.641688824E-1,9.630422592E0
3.821748857E0,7.725418359E-2,8.497959971E-1,9.640004158E0
3.824262034E0,1.012089700E-1,8.929146528E-1,9.678332329E0
3.826775211E0,1.341467947E-1,8.785417676E-1,9.644795418E0
3.829288388E0,1.155818403E-1,8.689598441E-1,9.663959503E0
3.831801513E0,1.581015885E-1,8.785417676E-1,9.692106247E0
3.834314690E0,1.581015885E-1,8.497959971E-1,9.701687813E0
3.836827867E0,1.868473291E-1,8.977055550E-1,9.692106247E0
3.839340992E0,1.203727946E-1,8.402140737E-1,9.687314987E0
3.841854169E0,1.155818403E-1,8.497959971E-1,9.777744293E0
3.844367346E0,1.341467947E-1,8.258412480E-1,9.839427948E0
3.846880523E0,1.245648861E-1,8.545869589E-1,9.849010468E0
3.849393648E0,1.059999242E-1,8.306322098E-1,9.849010468E0
3.851906825E0,1.012089700E-1,8.114683628E-1,9.877756119E0
3.854420002E0,1.155818403E-1,8.018864393E-1,9.934648514E0
3.856933179E0,8.683609962E-2,8.450050354E-1,9.915484428E0
3.859446304E0,1.059999242E-1,8.497959971E-1,9.910693169E0
3.861959482E0,1.059999242E-1,8.066774011E-1,9.939439774E0
3.864472659E0,1.437287182E-1,8.066774011E-1,9.949021339E0
3.866985836E0,1.389377564E-1,8.450050354E-1,9.972376823E0
3.869498961E0,1.293558478E-1,8.162593246E-1,9.944230080E0
3.872012138E0,1.203727946E-1,8.354231715E-1,9.887337685E0
3.874525315E0,9.162705392E-2,8.066774011E-1,9.915484428E0
3.877038492E0,1.437287182E-1,8.210502863E-1,9.877756119E0
3.879551617E0,1.389377564E-1,7.779316306E-1,9.820862770E0
3.882064794E0,1.293558478E-1,7.923045158E-1,9.844219208E0
3.884577971E0,1.245648861E-1,8.066774011E-1,9.839427948E0
3.887091148E0,1.203727946E-1,7.923045158E-1,9.839427948E0
3.889604273E0,1.012089700E-1,8.114683628E-1,9.811281204E0
3.892117450E0,1.389377564E-1,8.402140737E-1,9.792117119E0
3.894630627E0,1.059999242E-1,8.402140737E-1,9.777744293E0
3.897143804E0,9.641800821E-2,8.450050354E-1,9.735224724E0
3.899656929E0,5.329939723E-2,8.450050354E-1,9.706479073E0
3.902170107E0,7.246322930E-2,8.402140737E-1,9.668749809E0
3.904683284E0,7.246322930E-2,8.929146528E-1,9.659168243E0
3.907196409E0,1.155818403E-1,9.072874784E-1,9.730433464E0
3.909709586E0,8.683609962E-2,9.120784402E-1,9.716060638E0
3.912222763E0,2.455365472E-2,8.737508059E-1,9.696897507E0
3.914735940E0,3.892652690E-2,8.785417676E-1,9.720851898E0
3.917249065E0,8.204513788E-2,8.497959971E-1,9.749597549E0
3.919762242E0,5.809035525E-2,9.120784402E-1,9.696897507E0
3.922275419E0,4.850843921E-2,9.450162649E-1,9.749597549E0
3.924788596E0,5.809035525E-2,8.306322098E-1,9.749597549E0
3.927301721E0,5.809035525E-2,8.114683628E-1,9.744806290E0
3.929814898E0,7.246322930E-2,8.450050354E-1,9.744806290E0
3.932328075E0,4.371748492E-2,8.929146528E-1,9.834636688E0
3.934841252E0,1.059999242E-1,8.785417676E-1,9.801699638E0
3.937354377E0,1.155818403E-1,8.258412480E-1,9.792117119E0
3.939867554E0,8.204513788E-2,8.258412480E-1,9.777744293E0
3.942380732E0,7.725418359E-2,8.689598441E-1,9.768162727E0
3.944893909E0,1.341467947E-1,8.354231715E-1,9.816072464E0
3.947407034E0,1.107908860E-1,7.875135541E-1,9.811281204E0
3.949920211E0,8.204513788E-2,8.354231715E-1,9.796908379E0
3.952433388E0,5.809035525E-2,8.450050354E-1,9.834636688E0
3.954946565E0,8.683609962E-2,8.306322098E-1,9.792117119E0
3.957459690E0,7.725418359E-2,8.114683628E-1,9.839427948E0
3.959972867E0,9.641800821E-2,8.066774011E-1,9.806489944E0
3.962486044E0,1.155818403E-1,8.306322098E-1,9.825055122E0
3.964999221E0,1.245648861E-1,8.258412480E-1,9.882546425E0
3.967512346E0,1.203727946E-1,8.545869589E-1,9.820862770E0
3.970025523E0,7.725418359E-2,8.545869589E-1,9.777744293E0
3.972538700E0,1.203727946E-1,7.827225924E-1,9.758581161E0
3.975051877E0,1.155818403E-1,8.210502863E-1,9.768162727E0
3.977565002E0,1.389377564E-1,8.210502863E-1,9.758581161E0
3.980078179E0,1.059999242E-1,7.923045158E-1,9.720851898E0
3.982591357E0,8.204513788E-2,8.210502863E-1,9.735224724E0
3.985104482E0,8.204513788E-2,7.923045158E-1,9.740015984E0
3.987617659E0,8.204513788E-2,8.162593246E-1,9.758581161E0
3.990130836E0,7.246322930E-2,8.689598441E-1,9.744806290E0
3.992644013E0,4.850843921E-2,7.970954776E-1,9.692106247E0
3.995157138E0,2.455365472E-2,8.162593246E-1,9.696897507E0
3.997670315E0,3.413556889E-2,8.402140737E-1,9.668749809E0
4.000183492E0,5.329939723E-2,8.402140737E-1,9.587903023E0
4.002696669E0,3.892652690E-2,8.402140737E-1,9.597484589E0
4.005209794E0,5.809035525E-2,8.785417676E-1,9.568738937E0
4.007722971E0,7.246322930E-2,9.168694019E-1,9.544784546E0
4.010236148E0,8.204513788E-2,9.450162649E-1,9.592694283E0
4.012749325E0,9.162705392E-2,9.210615158E-1,9.578320503E0
4.015262450E0,1.012089700E-1,8.545869589E-1,9.630422592E0
4.017775627E0,7.725418359E-2,8.545869589E-1,9.668749809E0
4.020288804E0,7.246322930E-2,9.024965167E-1,9.668749809E0
4.022801982E0,1.389377564E-1,8.689598441E-1,9.701687813E0
4.025315107E0,1.251637489E-1,8.545869589E-1,9.725643158E0
4.027828284E0,1.251637489E-1,8.450050354E-1,9.782535553E0
4.030341461E0,7.246322930E-2,7.970954776E-1,9.758581161E0
4.032854638E0,8.204513788E-2,8.018864393E-1,9.763371468E0
4.035367763E0,1.251637489E-1,8.066774011E-1,9.816072464E0
4.037880940E0,7.246322930E-2,8.258412480E-1,9.825654030E0
4.040394169E0,1.155818403E-1,8.162593246E-1,9.806489944E0
4.042907398E0,1.107908860E-1,8.402140737E-1,9.834636688E0
4.045420627E0,1.772654057E-1,8.354231715E-1,9.806489944E0
4.047933857E0,1.724744588E-1,8.162593246E-1,9.801699638E0
4.050447086E0,1.581015885E-1,8.258412480E-1,9.777744293E0
4.052960315E0,1.581015885E-1,8.066774011E-1,9.692106247E0
4.055473544E0,1.533106267E-1,8.258412480E-1,9.659168243E0
4.057986773E0,2.108021080E-1,8.402140737E-1,9.649586678E0
4.060500002E0,1.916382909E-1,8.162593246E-1,9.630422592E0
4.063013232E0,1.916382909E-1,7.827225924E-1,9.620841026E0
4.065526461E0,2.012201995E-1,7.970954776E-1,9.583111763E0
4.068039690E0,2.299659401E-1,7.875135541E-1,9.635213852E0
4.070552919E0,2.060111612E-1,7.779316306E-1,9.635213852E0
4.073066148E0,2.155930698E-1,8.018864393E-1,9.597484589E0
4.075579377E0,1.964292377E-1,7.923045158E-1,9.616049767E0
4.078092607E0,1.916382909E-1,7.875135541E-1,9.725643158E0
4.080605836E0,1.581015885E-1,8.402140737E-1,9.725643158E0
4.083119065E0,1.868473291E-1,8.258412480E-1,9.706479073E0
4.085632294E0,1.916382909E-1,7.587678432E-1,9.763371468E0
4.088145523E0,1.533106267E-1,8.018864393E-1,9.801699638E0
4.090658752E0,1.964292377E-1,8.066774011E-1,9.792117119E0
4.093171982E0,1.581015885E-1,7.396039963E-1,9.839427948E0
4.095685211E0,1.299547106E-1,8.258412480E-1,9.882546425E0
4.098198440E0,1.485196650E-1,8.114683628E-1,9.839427948E0
4.100711669E0,1.485196650E-1,7.970954776E-1,9.825654030E0
4.103224898E0,1.203727946E-1,8.402140737E-1,9.853800774E0
4.105738127E0,1.347456723E-1,9.114795923E-1,9.829846382E0
4.108251357E0,1.251637489E-1,9.210615158E-1,9.858592033E0
4.110764586E0,1.347456723E-1,8.737508059E-1,9.849010468E0
4.113277815E0,1.581015885E-1,8.545869589E-1,9.834636688E0
4.115791044E0,1.533106267E-1,9.066886306E-1,9.801699638E0
4.118304273E0,1.820563674E-1,8.497959971E-1,9.763371468E0
4.120817502E0,1.533106267E-1,8.977055550E-1,9.787326813E0
4.123330732E0,1.916382909E-1,8.929146528E-1,9.754388809E0
4.125843961E0,1.868473291E-1,8.977055550E-1,9.706479073E0
4.128357190E0,2.060111612E-1,8.114683628E-1,9.711270332E0
4.130870419E0,2.012201995E-1,8.306322098E-1,9.706479073E0
4.133383648E0,1.676834971E-1,8.545869589E-1,9.654376984E0
4.135896877E0,1.772654057E-1,8.018864393E-1,9.644795418E0
4.138410107E0,2.251749784E-1,8.306322098E-1,9.659168243E0
4.140923336E0,1.964292377E-1,7.635588050E-1,9.659168243E0
4.143436565E0,1.868473291E-1,7.970954776E-1,9.668749809E0
4.145949794E0,2.395478487E-1,8.258412480E-1,9.620841026E0
4.148463023E0,1.868473291E-1,8.641688824E-1,9.640004158E0
4.150976252E0,2.203840315E-1,8.210502863E-1,9.602275848E0
4.153489482E0,2.060111612E-1,8.210502863E-1,9.611857414E0
4.156002711E0,2.108021080E-1,8.785417676E-1,9.583111763E0
4.158515940E0,2.060111612E-1,8.545869589E-1,9.630422592E0
4.161029169E0,2.060111612E-1,8.545869589E-1,9.635213852E0
4.163542398E0,1.868473291E-1,8.545869589E-1,9.683123589E0
4.166055627E0,1.916382909E-1,8.737508059E-1,9.720851898E0
4.168568857E0,1.964292377E-1,8.689598441E-1,9.735224724E0
4.171082086E0,1.676834971E-1,8.641688824E-1,9.692106247E0
4.173595315E0,1.868473291E-1,8.737508059E-1,9.744806290E0
4.176108544E0,1.389377564E-1,8.689598441E-1,9.758581161E0
4.178621773E0,2.155930698E-1,8.929146528E-1,9.782535553E0
4.181135002E0,2.299659401E-1,8.689598441E-1,9.777744293E0
4.183648232E0,1.533106267E-1,8.641688824E-1,9.801699638E0
4.186161461E0,2.155930698E-1,8.402140737E-1,9.782535553E0
4.188674690E0,2.251749784E-1,8.306322098E-1,9.754388809E0
4.191187815E0,2.006213218E-1,7.881124616E-1,9.757982254E0
4.193700679E0,1.383388788E-1,8.024852872E-1,9.824456215E0
4.196213492E0,1.670846343E-1,8.599767685E-1,9.829247475E0
4.198726357E0,1.622936726E-1,8.216491342E-1,9.848411560E0
4.201239221E0,1.383388788E-1,8.456039429E-1,9.805891037E0
4.203752086E0,1.431298405E-1,8.737508059E-1,9.777145386E0
4.206264950E0,1.383388788E-1,8.551858664E-1,9.829247475E0
4.208777815E0,1.862484515E-1,8.599767685E-1,9.777145386E0
4.211290679E0,2.006213218E-1,8.264400959E-1,9.796309471E0
4.213803544E0,2.054122835E-1,8.264400959E-1,9.805891037E0
4.216316409E0,1.622936726E-1,8.216491342E-1,9.801100731E0
4.218829221E0,1.383388788E-1,8.599767685E-1,9.815473557E0
4.221342086E0,2.102032453E-1,8.216491342E-1,9.791518211E0
4.223854950E0,1.862484515E-1,8.312310576E-1,9.725044250E0
4.226367815E0,1.718755811E-1,8.168581724E-1,9.701088905E0
4.228880679E0,2.006213218E-1,7.976943254E-1,9.725044250E0
4.231393544E0,1.910394132E-1,8.360220194E-1,9.781936646E0
4.233906409E0,1.862484515E-1,8.360220194E-1,9.777145386E0
4.236419273E0,1.431298405E-1,8.689598441E-1,9.739417076E0
4.238932138E0,2.335591614E-1,8.168581724E-1,9.748998642E0
4.241444950E0,2.287681997E-1,8.599767685E-1,9.825055122E0
4.243957815E0,1.766665429E-1,8.833327293E-1,9.857993126E0
4.246470679E0,1.862484515E-1,8.120672107E-1,9.872365952E0
4.248983544E0,1.766665429E-1,8.264400959E-1,9.815473557E0
4.251496409E0,1.862484515E-1,7.976943254E-1,9.872365952E0
4.254009273E0,1.958303750E-1,7.689486146E-1,9.843620300E0
4.256522138E0,2.197851539E-1,8.503949046E-1,9.867574692E0
4.259035002E0,2.054122835E-1,7.881124616E-1,9.910094261E0
4.261547867E0,2.054122835E-1,7.497847676E-1,9.919676781E0
4.264060679E0,2.197851539E-1,7.593666911E-1,9.900512695E0
4.266573544E0,1.814575046E-1,7.545757294E-1,9.872365952E0
4.269086409E0,2.287681997E-1,6.970842481E-1,9.900512695E0
4.271599273E0,2.149941921E-1,7.114571333E-1,9.843620300E0
4.274112138E0,2.054122835E-1,7.497847676E-1,9.872365952E0
4.276625002E0,1.862484515E-1,7.449938059E-1,9.896320343E0
4.279137867E0,1.910394132E-1,7.689486146E-1,9.867574692E0
4.281650732E0,1.766665429E-1,7.929034233E-1,9.820263863E0
4.284163544E0,1.862484515E-1,7.737395763E-1,9.767563820E0
4.286676409E0,1.718755811E-1,7.785305381E-1,9.710671425E0
4.289189273E0,2.006213218E-1,7.641576529E-1,9.725044250E0
4.291702138E0,2.006213218E-1,7.737395763E-1,9.701088905E0
4.294215002E0,1.718755811E-1,8.072762489E-1,9.725044250E0
4.296727867E0,1.527117640E-1,7.929034233E-1,9.644196510E0
4.299240732E0,1.670846343E-1,8.072762489E-1,9.629823685E0
4.301753596E0,2.287681997E-1,8.503949046E-1,9.648987770E0
4.304266461E0,2.245761156E-1,8.881236911E-1,9.629823685E0
4.306779273E0,1.575027108E-1,8.408129811E-1,9.691507339E0
4.309292138E0,1.383388788E-1,8.312310576E-1,9.672942162E0
4.311805002E0,1.191750541E-1,8.264400959E-1,9.606468201E0
4.314317867E0,6.707339734E-2,8.599767685E-1,9.639405251E0
4.316830732E0,1.006100997E-1,8.360220194E-1,9.615450859E0
4.319343596E0,1.143840998E-1,8.689598441E-1,9.629823685E0
4.321856461E0,1.766665429E-1,8.456039429E-1,9.601676941E0
4.324369325E0,1.670846343E-1,8.456039429E-1,9.577722549E0
4.326882190E0,1.766665429E-1,8.503949046E-1,9.601676941E0
4.329395002E0,1.910394132E-1,8.408129811E-1,9.582512856E0
4.331907867E0,2.335591614E-1,8.408129811E-1,9.653778076E0
4.334420732E0,2.149941921E-1,8.408129811E-1,9.672942162E0
4.336933596E0,2.245761156E-1,8.168581724E-1,9.625032425E0
4.339446461E0,2.527229786E-1,8.120672107E-1,9.639405251E0
4.341959325E0,2.102032453E-1,7.833214998E-1,9.653778076E0
4.344472190E0,2.670958638E-1,7.449938059E-1,9.634614944E0
4.346985054E0,3.054235280E-1,7.449938059E-1,9.653778076E0
4.349497919E0,2.814687192E-1,7.497847676E-1,9.715461731E0
4.352010732E0,3.102144599E-1,7.114571333E-1,9.744207382E0
4.354523596E0,3.054235280E-1,7.306209803E-1,9.777145386E0
4.357036461E0,2.862596810E-1,7.354119420E-1,9.757982254E0
4.359549325E0,2.862596810E-1,6.779204011E-1,9.772355080E0
4.362062190E0,2.862596810E-1,7.114571333E-1,9.739417076E0
4.364575054E0,2.670958638E-1,7.114571333E-1,9.753190994E0
4.367087919E0,2.575139403E-1,7.066661716E-1,9.744207382E0
4.369600784E0,2.766777575E-1,7.593666911E-1,9.739417076E0
4.372113648E0,2.718868256E-1,7.449938059E-1,9.772355080E0
4.374626461E0,2.623049021E-1,7.402028441E-1,9.686716080E0
4.377139325E0,3.150054216E-1,7.497847676E-1,9.705880165E0
4.379652190E0,2.718868256E-1,7.833214998E-1,9.672942162E0
4.382165054E0,2.245761156E-1,7.354119420E-1,9.672942162E0
4.384677919E0,2.287681997E-1,8.216491342E-1,9.663360596E0
4.387190784E0,2.670958638E-1,7.785305381E-1,9.668151855E0
4.389703648E0,2.670958638E-1,7.737395763E-1,9.658569336E0
4.392216513E0,1.766665429E-1,8.024852872E-1,9.601676941E0
4.394729377E0,1.766665429E-1,7.881124616E-1,9.568140030E0
4.397242190E0,1.479208022E-1,7.976943254E-1,9.572931290E0
4.399755054E0,1.862484515E-1,8.503949046E-1,9.558558464E0
4.402267919E0,1.431298405E-1,8.264400959E-1,9.572931290E0
4.404780784E0,1.575027108E-1,8.456039429E-1,9.592095375E0
4.407293648E0,1.670846343E-1,8.641688824E-1,9.596885681E0
4.409806513E0,1.479208022E-1,7.833214998E-1,9.615450859E0
4.412319377E0,1.814575046E-1,8.120672107E-1,9.677733421E0
4.414832242E0,1.910394132E-1,8.551858664E-1,9.587304115E0
4.417345107E0,1.431298405E-1,8.168581724E-1,9.639405251E0
4.419857919E0,1.958303750E-1,8.024852872E-1,9.705880165E0
4.422370784E0,2.197851539E-1,8.551858664E-1,9.663360596E0
4.424883648E0,1.670846343E-1,8.120672107E-1,9.681925774E0
4.427396513E0,1.766665429E-1,8.264400959E-1,9.691507339E0
4.429909377E0,2.245761156E-1,8.551858664E-1,9.648987770E0
4.432422242E0,2.245761156E-1,7.929034233E-1,9.720252991E0
4.434935107E0,2.479320318E-1,7.689486146E-1,9.668151855E0
4.437447971E0,2.006213218E-1,7.785305381E-1,9.705880165E0
4.439960836E0,2.287681997E-1,7.785305381E-1,9.810682297E0
4.442473648E0,2.383501083E-1,7.402028441E-1,9.777145386E0
4.444986513E0,2.383501083E-1,7.593666911E-1,9.786727905E0
4.447499377E0,2.102032453E-1,7.545757294E-1,9.801100731E0
4.450012242E0,2.287681997E-1,7.689486146E-1,9.772355080E0
4.452525107E0,2.197851539E-1,8.072762489E-1,9.838829041E0
4.455037971E0,1.958303750E-1,7.689486146E-1,9.843620300E0
4.457550836E0,1.862484515E-1,8.072762489E-1,9.886738777E0
4.460063700E0,1.575027108E-1,8.264400959E-1,9.834038734E0
4.462576565E0,1.383388788E-1,8.072762489E-1,9.862784386E0
4.465089377E0,1.479208022E-1,8.024852872E-1,9.857993126E0
4.467602242E0,1.239660159E-1,8.408129811E-1,9.805891037E0
4.470115107E0,1.287569702E-1,8.551858664E-1,9.796309471E0
4.472627971E0,1.287569702E-1,8.456039429E-1,9.862784386E0
4.475140836E0,1.335479319E-1,8.785417676E-1,9.825055122E0
4.477653700E0,1.479208022E-1,8.833327293E-1,9.753190994E0
4.480166565E0,1.575027108E-1,8.360220194E-1,9.753190994E0
4.482679429E0,1.335479319E-1,8.929146528E-1,9.762772560E0
4.485192242E0,1.143840998E-1,8.312310576E-1,9.720252991E0
4.487705107E0,1.431298405E-1,8.689598441E-1,9.757982254E0
4.490217971E0,1.287569702E-1,8.929146528E-1,9.762772560E0
4.492730836E0,1.048021838E-1,8.551858664E-1,9.725044250E0
4.495243700E0,1.287569702E-1,8.641688824E-1,9.705880165E0
4.497756565E0,1.383388788E-1,8.881236911E-1,9.725044250E0
4.500269429E0,1.622936726E-1,8.833327293E-1,9.686716080E0
4.502782294E0,1.814575046E-1,8.120672107E-1,9.677733421E0
4.505295159E0,2.383501083E-1,8.264400959E-1,9.681925774E0
4.507807971E0,2.287681997E-1,8.503949046E-1,9.696298599E0
4.510320836E0,2.054122835E-1,8.312310576E-1,9.762772560E0
4.512833700E0,2.245761156E-1,8.503949046E-1,9.753190994E0
4.515346565E0,2.006213218E-1,8.360220194E-1,9.725044250E0
4.517859429E0,1.527117640E-1,8.360220194E-1,9.748998642E0
4.520372294E0,1.575027108E-1,8.264400959E-1,9.729834557E0
4.522885159E0,2.149941921E-1,7.881124616E-1,9.748998642E0
4.525398023E0,2.054122835E-1,8.456039429E-1,9.677733421E0
4.527910888E0,1.814575046E-1,8.456039429E-1,9.777145386E0
4.530423700E0,1.670846343E-1,8.072762489E-1,9.786727905E0
4.532936565E0,1.814575046E-1,7.976943254E-1,9.762772560E0
4.535449482E0,2.054122835E-1,8.503949046E-1,9.801100731E0
4.537962502E0,1.622936726E-1,8.599767685E-1,9.744207382E0
4.540475575E0,1.766665429E-1,8.551858664E-1,9.786727905E0
4.542988700E0,2.006213218E-1,8.737508059E-1,9.801100731E0
4.545501773E0,1.814575046E-1,8.881236911E-1,9.762772560E0
4.548014846E0,2.102032453E-1,8.599767685E-1,9.810682297E0
4.550527971E0,1.862484515E-1,8.360220194E-1,9.810682297E0
4.553041044E0,2.383501083E-1,8.216491342E-1,9.753190994E0
4.555554117E0,2.102032453E-1,8.168581724E-1,9.767563820E0
4.558067242E0,2.102032453E-1,8.264400959E-1,9.805891037E0
4.560580315E0,2.479320318E-1,7.881124616E-1,9.739417076E0
4.563093388E0,2.335591614E-1,7.593666911E-1,9.810682297E0
4.565606513E0,2.670958638E-1,8.216491342E-1,9.867574692E0
4.568119586E0,2.623049021E-1,7.689486146E-1,9.853201866E0
4.570632659E0,2.431410700E-1,7.306209803E-1,9.810682297E0
4.573145784E0,3.054235280E-1,7.258300185E-1,9.786727905E0
4.575658857E0,3.054235280E-1,7.258300185E-1,9.825055122E0
4.578171929E0,2.862596810E-1,7.833214998E-1,9.777145386E0
4.580685054E0,2.958416045E-1,7.689486146E-1,9.757982254E0
4.583198127E0,2.718868256E-1,7.641576529E-1,9.725044250E0
4.585711200E0,2.527229786E-1,7.737395763E-1,9.729834557E0
4.588224273E0,2.575139403E-1,8.024852872E-1,9.762772560E0
4.590737398E0,3.006325662E-1,7.833214998E-1,9.753190994E0
4.593250471E0,2.431410700E-1,7.976943254E-1,9.739417076E0
4.595763544E0,2.335591614E-1,8.312310576E-1,9.772355080E0
4.598276669E0,2.245761156E-1,7.881124616E-1,9.791518211E0
4.600789742E0,2.383501083E-1,8.312310576E-1,9.744207382E0
4.603302815E0,2.335591614E-1,7.833214998E-1,9.734625816E0
4.605815940E0,2.383501083E-1,8.024852872E-1,9.729834557E0
4.608329013E0,2.479320318E-1,8.456039429E-1,9.729834557E0
4.610842086E0,2.197851539E-1,8.599767685E-1,9.739417076E0
4.613355211E0,2.006213218E-1,8.072762489E-1,9.801100731E0
4.615868284E0,2.245761156E-1,8.024852872E-1,9.801100731E0
4.618381357E0,1.910394132E-1,8.551858664E-1,9.838829041E0
4.620894482E0,1.814575046E-1,8.312310576E-1,9.843620300E0
4.623407554E0,2.197851539E-1,8.503949046E-1,9.891530037E0
4.625920627E0,2.431410700E-1,8.641688824E-1,9.905303955E0
4.628433752E0,2.197851539E-1,8.503949046E-1,9.848411560E0
4.630946825E0,2.006213218E-1,8.599767685E-1,9.853201866E0
4.633459898E0,2.197851539E-1,8.408129811E-1,9.834038734E0
4.635973023E0,2.287681997E-1,8.168581724E-1,9.801100731E0
4.638486096E0,1.910394132E-1,7.833214998E-1,9.767563820E0
4.640999169E0,2.670958638E-1,7.976943254E-1,9.772355080E0
4.643512294E0,2.814687192E-1,8.264400959E-1,9.767563820E0
4.646025367E0,2.862596810E-1,7.976943254E-1,9.762772560E0
4.648538440E0,2.479320318E-1,8.503949046E-1,9.720252991E0
4.651051565E0,2.197851539E-1,8.599767685E-1,9.734625816E0
4.653564638E0,2.006213218E-1,8.503949046E-1,9.691507339E0
4.656077711E0,2.006213218E-1,8.599767685E-1,9.629823685E0
4.658590836E0,2.102032453E-1,8.785417676E-1,9.644196510E0
4.661103909E0,2.006213218E-1,8.641688824E-1,9.644196510E0
4.663616982E0,1.718755811E-1,8.551858664E-1,9.663360596E0
4.666130107E0,1.622936726E-1,8.551858664E-1,9.639405251E0
4.668643179E0,1.718755811E-1,9.072874784E-1,9.639405251E0
4.671156252E0,1.670846343E-1,8.551858664E-1,9.634614944E0
4.673669377E0,2.102032453E-1,8.737508059E-1,9.610659599E0
4.676182450E0,1.910394132E-1,9.551970959E-1,9.601676941E0
4.678695523E0,1.766665429E-1,8.833327293E-1,9.658569336E0
4.681208648E0,1.862484515E-1,8.833327293E-1,9.705880165E0
4.683721721E0,1.766665429E-1,9.072874784E-1,9.629823685E0
4.686234794E0,1.718755811E-1,8.833327293E-1,9.691507339E0
4.688747919E0,1.670846343E-1,8.785417676E-1,9.710671425E0
4.691260992E0,1.766665429E-1,8.977055550E-1,9.705880165E0
4.693774065E0,1.670846343E-1,8.408129811E-1,9.663360596E0
4.696287138E0,1.095931455E-1,8.551858664E-1,9.644196510E0
4.698800263E0,1.862484515E-1,8.929146528E-1,9.681925774E0
4.701313336E0,2.054122835E-1,8.833327293E-1,9.615450859E0
4.703826409E0,1.814575046E-1,8.312310576E-1,9.696298599E0
4.706339534E0,2.149941921E-1,8.408129811E-1,9.668151855E0
4.708852607E0,1.910394132E-1,8.120672107E-1,9.672942162E0
4.711365679E0,2.006213218E-1,8.312310576E-1,9.686716080E0
4.713878804E0,2.054122835E-1,8.551858664E-1,9.705880165E0
4.716391877E0,2.431410700E-1,8.551858664E-1,9.686716080E0
4.718904950E0,2.102032453E-1,8.360220194E-1,9.725044250E0
4.721418075E0,2.149941921E-1,7.881124616E-1,9.734625816E0
4.723931148E0,2.335591614E-1,7.737395763E-1,9.748998642E0
4.726444221E0,3.054235280E-1,7.497847676E-1,9.786727905E0
4.728957346E0,2.575139403E-1,7.737395763E-1,9.744207382E0
4.731470419E0,2.623049021E-1,7.593666911E-1,9.691507339E0
4.733983492E0,2.479320318E-1,7.402028441E-1,9.739417076E0
4.736496617E0,2.910506427E-1,7.210390568E-1,9.705880165E0
4.739009690E0,3.389602005E-1,7.449938059E-1,9.777145386E0
4.741522763E0,2.766777575E-1,7.881124616E-1,9.710671425E0
4.744035888E0,2.862596810E-1,7.497847676E-1,9.701088905E0
4.746548961E0,3.054235280E-1,7.641576529E-1,9.720252991E0
4.749062034E0,2.766777575E-1,7.545757294E-1,9.772355080E0
4.751575159E0,2.575139403E-1,7.689486146E-1,9.691507339E0
4.754088232E0,2.718868256E-1,7.976943254E-1,9.696298599E0
4.756601304E0,2.814687192E-1,7.689486146E-1,9.720252991E0
4.759114429E0,2.479320318E-1,7.545757294E-1,9.681925774E0
4.761627502E0,2.383501083E-1,7.641576529E-1,9.677733421E0
4.764140575E0,2.575139403E-1,7.545757294E-1,9.658569336E0
4.766653700E0,2.383501083E-1,7.976943254E-1,9.720252991E0
4.769166773E0,2.006213218E-1,8.168581724E-1,9.672942162E0
4.771679846E0,2.527229786E-1,8.312310576E-1,9.658569336E0
4.774192971E0,2.102032453E-1,8.216491342E-1,9.648987770E0
4.776706044E0,1.766665429E-1,8.408129811E-1,9.710671425E0
4.779219117E0,2.197851539E-1,7.881124616E-1,9.715461731E0
4.781732242E0,2.197851539E-1,7.545757294E-1,9.710671425E0
4.784245315E0,2.197851539E-1,7.929034233E-1,9.701088905E0
4.786758388E0,2.527229786E-1,7.641576529E-1,9.686716080E0
4.789271513E0,2.383501083E-1,8.024852872E-1,9.739417076E0
4.791784586E0,2.006213218E-1,7.833214998E-1,9.681925774E0
4.794297659E0,2.102032453E-1,8.168581724E-1,9.710671425E0
4.796810784E0,2.670958638E-1,8.216491342E-1,9.734625816E0
4.799323857E0,2.054122835E-1,7.785305381E-1,9.668151855E0
4.801836929E0,2.149941921E-1,7.785305381E-1,9.701088905E0
4.804350002E0,2.479320318E-1,8.024852872E-1,9.672942162E0
4.806863127E0,2.054122835E-1,8.456039429E-1,9.644196510E0
4.809376200E0,1.718755811E-1,8.024852872E-1,9.710671425E0
4.811889273E0,1.862484515E-1,8.072762489E-1,9.720252991E0
4.814402398E0,2.054122835E-1,8.216491342E-1,9.686716080E0
4.816915471E0,2.102032453E-1,8.408129811E-1,9.691507339E0
4.819428544E0,1.766665429E-1,8.599767685E-1,9.691507339E0
4.821941669E0,1.718755811E-1,8.503949046E-1,9.744207382E0
4.824454742E0,1.670846343E-1,8.737508059E-1,9.725044250E0
4.826967815E0,1.431298405E-1,8.408129811E-1,9.739417076E0
4.829480940E0,1.575027108E-1,8.833327293E-1,9.762772560E0
4.831994013E0,1.335479319E-1,9.551970959E-1,9.805891037E0
4.834507086E0,1.239660159E-1,8.737508059E-1,9.810682297E0
4.837020211E0,1.335479319E-1,9.216603637E-1,9.843620300E0
4.839533284E0,1.814575046E-1,8.737508059E-1,9.838829041E0
4.842046357E0,1.383388788E-1,8.551858664E-1,9.838829041E0
4.844559482E0,1.335479319E-1,8.737508059E-1,9.862784386E0
4.847072554E0,1.670846343E-1,9.024965167E-1,9.838829041E0
4.849585627E0,1.718755811E-1,8.929146528E-1,9.834038734E0
4.852098752E0,1.718755811E-1,9.024965167E-1,9.825055122E0
4.854611825E0,1.527117640E-1,8.977055550E-1,9.805891037E0
4.857124898E0,1.575027108E-1,9.024965167E-1,9.762772560E0
4.859638023E0,1.383388788E-1,9.312422872E-1,9.739417076E0
4.862151096E0,1.143840998E-1,8.881236911E-1,9.710671425E0
4.864664169E0,1.431298405E-1,8.833327293E-1,9.691507339E0
4.867177294E0,1.143840998E-1,8.929146528E-1,9.677733421E0
4.869690367E0,1.479208022E-1,8.551858664E-1,9.610659599E0
4.872203440E0,1.766665429E-1,8.977055550E-1,9.606468201E0
4.874716565E0,1.622936726E-1,9.264513254E-1,9.553767204E0
4.877229638E0,1.431298405E-1,8.977055550E-1,9.582512856E0
4.879742711E0,1.575027108E-1,8.929146528E-1,9.506456375E0
4.882255836E0,1.958303750E-1,8.929146528E-1,9.539394379E0
4.884768909E0,2.102032453E-1,8.881236911E-1,9.535202026E0
4.887281982E0,1.239660159E-1,8.881236911E-1,9.477710724E0
4.889795107E0,1.479208022E-1,8.929146528E-1,9.516038895E0
4.892308179E0,1.718755811E-1,8.689598441E-1,9.516038895E0
4.894821252E0,1.383388788E-1,9.168694019E-1,9.487293243E0
4.897334377E0,1.191750541E-1,8.929146528E-1,9.530411720E0
4.899847450E0,7.186435908E-2,8.929146528E-1,9.563348770E0
4.902360523E0,1.143840998E-1,9.024965167E-1,9.563348770E0
4.904873648E0,1.191750541E-1,9.072874784E-1,9.572931290E0
4.907386721E0,1.431298405E-1,8.689598441E-1,9.577722549E0
4.909899794E0,1.479208022E-1,8.737508059E-1,9.601676941E0
4.912412867E0,1.431298405E-1,8.833327293E-1,9.558558464E0
4.914925992E0,1.862484515E-1,8.737508059E-1,9.592095375E0
4.917439065E0,1.910394132E-1,8.216491342E-1,9.587304115E0
4.919952138E0,1.766665429E-1,8.312310576E-1,9.644196510E0
4.922465263E0,1.910394132E-1,7.976943254E-1,9.686716080E0
4.924978336E0,1.862484515E-1,8.641688824E-1,9.658569336E0
4.927491409E0,1.814575046E-1,8.360220194E-1,9.668151855E0
4.930004534E0,1.910394132E-1,8.168581724E-1,9.715461731E0
4.932517607E0,1.239660159E-1,8.408129811E-1,9.668151855E0
4.935030679E0,1.575027108E-1,8.024852872E-1,9.762772560E0
4.937543804E0,1.095931455E-1,8.168581724E-1,9.796309471E0
4.940056877E0,1.431298405E-1,8.408129811E-1,9.748998642E0
4.942569950E0,1.431298405E-1,8.977055550E-1,9.772355080E0
4.945083075E0,1.527117640E-1,8.456039429E-1,9.838829041E0
4.947596148E0,1.910394132E-1,8.264400959E-1,9.825055122E0
4.950109221E0,1.910394132E-1,8.408129811E-1,9.853201866E0
4.952622346E0,1.622936726E-1,9.072874784E-1,9.825055122E0
4.955135419E0,2.287681997E-1,8.168581724E-1,9.820263863E0
4.957648492E0,1.527117640E-1,8.120672107E-1,9.853201866E0
4.960161617E0,1.814575046E-1,7.785305381E-1,9.881947517E0
4.962674690E0,1.862484515E-1,8.024852872E-1,9.886738777E0
4.965187763E0,1.287569702E-1,8.168581724E-1,9.853201866E0
4.967700888E0,1.431298405E-1,8.689598441E-1,9.867574692E0
4.970213961E0,1.431298405E-1,8.264400959E-1,9.843620300E0
4.972727034E0,1.479208022E-1,7.976943254E-1,9.834038734E0
4.975240159E0,1.527117640E-1,8.551858664E-1,9.834038734E0
4.977753232E0,1.335479319E-1,8.689598441E-1,9.862784386E0
4.980266304E0,1.575027108E-1,8.599767685E-1,9.820263863E0
4.982779429E0,1.958303750E-1,8.785417676E-1,9.862784386E0
4.985292502E0,1.814575046E-1,8.599767685E-1,9.820263863E0
4.987805575E0,1.766665429E-1,8.977055550E-1,9.838829041E0
4.990318700E0,1.383388788E-1,9.072874784E-1,9.805891037E0
4.992831773E0,1.431298405E-1,8.689598441E-1,9.881947517E0
4.995344846E0,1.527117640E-1,9.264513254E-1,9.900512695E0
4.997857971E0,1.191750541E-1,9.072874784E-1,9.896320343E0
5.000371044E0,1.095931455E-1,8.737508059E-1,9.848411560E0
5.002884117E0,1.239660159E-1,9.264513254E-1,9.910094261E0
5.005397242E0,1.006100997E-1,8.551858664E-1,9.896320343E0
5.007910315E0,8.144626766E-2,8.641688824E-1,9.919676781E0
5.010423388E0,1.239660159E-1,9.024965167E-1,9.929258347E0
5.012936513E0,1.718755811E-1,9.120784402E-1,9.938840866E0
5.015449586E0,1.527117640E-1,9.072874784E-1,9.948422432E0
5.017962659E0,1.287569702E-1,8.503949046E-1,9.938840866E0
5.020475732E0,1.431298405E-1,8.551858664E-1,9.948422432E0
5.022988857E0,1.287569702E-1,8.977055550E-1,9.934049606E0
5.025501929E0,1.335479319E-1,8.929146528E-1,9.891530037E0
5.028015002E0,1.383388788E-1,8.833327293E-1,9.872365952E0
5.030528127E0,1.335479319E-1,8.408129811E-1,9.914885521E0
5.033041200E0,1.718755811E-1,8.641688824E-1,9.848411560E0
5.035554273E0,1.670846343E-1,9.360332489E-1,9.838829041E0
5.038067502E0,1.575027108E-1,9.312422872E-1,9.872365952E0
5.040580732E0,2.102032453E-1,8.737508059E-1,9.796309471E0
5.043093909E0,1.622936726E-1,8.881236911E-1,9.791518211E0
5.045607138E0,1.814575046E-1,9.647789598E-1,9.820263863E0
5.048120367E0,1.479208022E-1,9.072874784E-1,9.810682297E0
5.050633544E0,2.006213218E-1,9.024965167E-1,9.801100731E0
5.053146773E0,1.766665429E-1,9.216603637E-1,9.801100731E0
5.055660002E0,1.670846343E-1,9.072874784E-1,9.834038734E0
5.058173179E0,1.718755811E-1,9.360332489E-1,9.829247475E0
5.060686409E0,1.575027108E-1,9.216603637E-1,9.796309471E0
5.063199638E0,1.095931455E-1,8.929146528E-1,9.815473557E0
5.065712815E0,1.287569702E-1,9.312422872E-1,9.862784386E0
5.068226044E0,1.095931455E-1,9.216603637E-1,9.820263863E0
5.070739273E0,1.335479319E-1,9.168694019E-1,9.805891037E0
5.073252450E0,9.581914544E-2,9.408242106E-1,9.815473557E0
5.075765679E0,1.006100997E-1,9.264513254E-1,9.829247475E0
5.078278857E0,5.749148503E-2,9.551970959E-1,9.801100731E0
5.080792086E0,7.665531337E-2,9.120784402E-1,9.781936646E0
5.083305315E0,8.144626766E-2,9.216603637E-1,9.801100731E0
5.085818492E0,1.916382834E-2,9.551970959E-1,9.729834557E0
5.088331721E0,2.874574251E-2,1.007897615E0,9.725044250E0
5.090844950E0,9.102818370E-2,9.887337685E-1,9.720252991E0
5.093358127E0,6.707339734E-2,9.647789598E-1,9.739417076E0
5.095871357E0,-1.916382834E-2,9.887337685E-1,9.710671425E0
5.098384586E0,3.832765669E-2,9.647789598E-1,9.691507339E0
5.100897763E0,5.270052701E-2,9.935247302E-1,9.668151855E0
5.103410992E0,4.311861470E-2,9.264513254E-1,9.610659599E0
5.105924221E0,7.186435908E-2,9.647789598E-1,9.606468201E0
5.108437398E0,1.095931455E-1,9.551970959E-1,9.634614944E0
5.110950627E0,1.239660159E-1,9.072874784E-1,9.601676941E0
5.113463857E0,1.670846343E-1,8.599767685E-1,9.653778076E0
5.115977034E0,1.575027108E-1,9.264513254E-1,9.658569336E0
5.118490263E0,1.383388788E-1,9.072874784E-1,9.615450859E0
5.121003440E0,1.431298405E-1,8.641688824E-1,9.606468201E0
5.123516669E0,1.575027108E-1,8.551858664E-1,9.625032425E0
5.126029898E0,1.862484515E-1,8.360220194E-1,9.634614944E0
5.128543075E0,1.910394132E-1,8.881236911E-1,9.663360596E0
5.131056304E0,1.766665429E-1,8.216491342E-1,9.620242119E0
5.133569534E0,1.766665429E-1,7.976943254E-1,9.615450859E0
5.136082711E0,2.102032453E-1,7.976943254E-1,9.681925774E0
5.138595940E0,2.287681997E-1,7.929034233E-1,9.681925774E0
5.141109169E0,2.006213218E-1,7.402028441E-1,9.686716080E0
5.143622346E0,2.479320318E-1,7.162480950E-1,9.701088905E0
5.146135575E0,2.054122835E-1,7.354119420E-1,9.762772560E0
5.148648804E0,2.287681997E-1,6.922932863E-1,9.781936646E0
5.151161982E0,2.670958638E-1,7.114571333E-1,9.820263863E0
5.153675211E0,2.910506427E-1,7.306209803E-1,9.905303955E0
5.156188440E0,2.862596810E-1,6.827113628E-1,9.886738777E0
5.158701617E0,2.383501083E-1,7.162480950E-1,9.900512695E0
5.161214846E0,2.766777575E-1,7.258300185E-1,9.929258347E0
5.163728023E0,3.006325662E-1,6.827113628E-1,9.914885521E0
5.166241252E0,2.910506427E-1,6.539656520E-1,9.810682297E0
5.168754482E0,2.814687192E-1,6.970842481E-1,9.838829041E0
5.171267659E0,3.006325662E-1,7.018752098E-1,9.843620300E0
5.173780888E0,2.862596810E-1,6.970842481E-1,9.843620300E0
5.176294117E0,2.527229786E-1,6.635475755E-1,9.786727905E0
5.178807294E0,3.102144599E-1,6.683385372E-1,9.786727905E0
5.181320523E0,2.910506427E-1,7.354119420E-1,9.734625816E0
5.183833752E0,3.102144599E-1,7.162480950E-1,9.725044250E0
5.186346929E0,2.054122835E-1,7.210390568E-1,9.663360596E0
5.188860159E0,2.479320318E-1,7.018752098E-1,9.620242119E0
5.191373388E0,3.006325662E-1,6.875023246E-1,9.572931290E0
5.193886565E0,2.862596810E-1,7.306209803E-1,9.563348770E0
5.196399794E0,2.676947415E-1,7.443949580E-1,9.530411720E0
5.198913023E0,2.197851539E-1,7.396039963E-1,9.507055283E0
5.201426200E0,2.012201995E-1,7.635588050E-1,9.520829201E0
5.203939429E0,1.820563674E-1,7.683497667E-1,9.502264977E0
5.206452659E0,1.772654057E-1,7.587678432E-1,9.459145546E0
5.208965836E0,2.060111612E-1,8.018864393E-1,9.544784546E0
5.211479065E0,2.060111612E-1,7.970954776E-1,9.549574852E0
5.213992242E0,1.676834971E-1,8.018864393E-1,9.559157372E0
5.216505471E0,1.676834971E-1,8.497959971E-1,9.568738937E0
5.219018700E0,1.820563674E-1,8.066774011E-1,9.559157372E0
5.221531877E0,1.820563674E-1,8.306322098E-1,9.625631332E0
