"Time (s)","Gyroscope x (rad/s)","Gyroscope y (rad/s)","Gyroscope z (rad/s)"
2.433000200E-2,-1.202416196E-1,-2.290316671E-2,2.463421971E-2
2.684323200E-2,-1.159805655E-1,-2.822948247E-2,2.463421971E-2
2.935646100E-2,-1.245026737E-1,-3.036000952E-2,2.463421971E-2
3.186969000E-2,-1.330247819E-1,-3.781685606E-2,2.250369266E-2
3.438291900E-2,-1.340900511E-1,-4.420843720E-2,1.930790208E-2
3.689614800E-2,-1.319595128E-1,-4.633896425E-2,1.824263856E-2
3.940937700E-2,-1.287637353E-1,-5.273054540E-2,1.398158353E-2
4.192260700E-2,-1.298289895E-1,-5.592633411E-2,1.398158353E-2
4.443583600E-2,-1.266331971E-1,-5.486107245E-2,1.291632000E-2
4.694906500E-2,-1.191763580E-1,-5.592633411E-2,8.655265905E-3
4.946229400E-2,-1.117195114E-1,-5.486107245E-2,7.590002380E-3
5.197552300E-2,-1.042626649E-1,-4.740422592E-2,1.185105648E-2
5.448875200E-2,-9.254477173E-2,-4.207791016E-2,1.185105648E-2
5.700198200E-2,-8.295739442E-2,-3.781685606E-2,1.078579295E-2
5.951521100E-2,-7.017423213E-2,-2.929474786E-2,1.185105648E-2
6.202844000E-2,-5.632580817E-2,-2.183790132E-2,1.504684705E-2
6.454166900E-2,-4.993422702E-2,-1.544632111E-2,1.504684705E-2
6.705489800E-2,-3.821633011E-2,-7.989476435E-3,1.611211151E-2
6.956807500E-2,-2.649842948E-2,-1.464737346E-3,1.504684705E-2
7.208130400E-2,-2.223737538E-2,1.731053228E-3,1.717737503E-2
7.459453400E-2,-1.371526811E-2,4.926843569E-3,1.717737503E-2
7.710776300E-2,-3.062632633E-3,8.122634143E-3,1.717737503E-2
7.962099200E-2,6.524738856E-3,1.344895177E-2,1.717737503E-2
8.213422100E-2,9.720529430E-3,1.131842472E-2,1.717737503E-2
8.464745000E-2,1.611211151E-2,9.187897667E-3,1.930790208E-2
8.716067900E-2,2.356895618E-2,1.131842472E-2,2.037316561E-2
8.967390900E-2,2.356895618E-2,8.122634143E-3,1.717737503E-2
9.218713800E-2,2.143842913E-2,8.122634143E-3,1.717737503E-2
9.470036700E-2,2.250369266E-2,7.057370618E-3,1.824263856E-2
9.721359600E-2,2.143842913E-2,7.057370618E-3,1.504684705E-2
9.972682500E-2,2.250369266E-2,7.057370618E-3,1.504684705E-2
1.022400540E-1,2.143842913E-2,8.122634143E-3,1.291632000E-2
1.047532840E-1,1.611211151E-2,8.122634143E-3,8.655265905E-3
1.072665130E-1,1.398158353E-2,3.861580277E-3,9.720529430E-3
1.097797420E-1,8.655265905E-3,1.731053228E-3,4.394211806E-3
1.122929710E-1,7.590002380E-3,6.657897029E-4,2.263684990E-3
1.148062000E-1,2.263684990E-3,-5.725791678E-3,1.198421465E-3
1.173194290E-1,-3.062632633E-3,-3.595264396E-3,1.331579406E-4
1.198326590E-1,-1.158474106E-2,-3.595264396E-3,-3.062632633E-3
1.223458880E-1,-1.478053164E-2,-3.994738217E-4,-1.997369109E-3
1.248591170E-1,-1.904158480E-2,-3.595264396E-3,-5.193159916E-3
1.273723460E-1,-2.330263890E-2,-7.856318727E-3,-6.258423440E-3
1.298855750E-1,-2.969422005E-2,-8.921582252E-3,-6.258423440E-3
1.323988040E-1,-3.182474896E-2,-8.921582252E-3,-9.454214014E-3
1.349120340E-1,-3.075948358E-2,-1.105210930E-2,-1.051947754E-2
1.374252630E-1,-3.182474896E-2,-1.850895397E-2,-6.258423440E-3
1.399384920E-1,-3.289001063E-2,-1.957421750E-2,-4.127896391E-3
1.424517210E-1,-3.289001063E-2,-2.596579865E-2,-4.127896391E-3
1.449649500E-1,-3.289001063E-2,-3.022685274E-2,-3.062632633E-3
1.474781790E-1,-2.756369300E-2,-2.916158922E-2,-1.997369109E-3
1.499914090E-1,-2.330263890E-2,-3.235737979E-2,1.198421465E-3
1.525046380E-1,-2.117211185E-2,-3.555316851E-2,1.331579406E-4
1.550178670E-1,-1.797632128E-2,-3.022685274E-2,-9.321055841E-4
1.575310440E-1,-1.584579423E-2,-3.129211441E-2,6.524738856E-3
1.600442730E-1,-1.265000459E-2,-2.703106217E-2,8.655265905E-3
1.625575020E-1,-7.323686965E-3,-2.383527160E-2,9.720529430E-3
1.650707320E-1,-6.258423440E-3,-1.850895397E-2,1.185105648E-2
1.675839610E-1,-1.997369109E-3,-1.637842692E-2,9.720529430E-3
1.700971900E-1,-9.321055841E-4,-1.318263635E-2,1.291632000E-2
1.726104190E-1,-9.321055841E-4,-8.921582252E-3,1.185105648E-2
1.751236480E-1,-9.321055841E-4,-5.725791678E-3,1.504684705E-2
1.776368770E-1,1.331579406E-4,-6.791055202E-3,9.720529430E-3
1.801501070E-1,2.263684990E-3,-8.921582252E-3,6.524738856E-3
1.826633360E-1,4.394211806E-3,-1.211737283E-2,5.459475331E-3
1.851765650E-1,1.198421465E-3,-1.637842692E-2,2.263684990E-3
1.876897940E-1,-9.321055841E-4,-1.957421750E-2,-3.062632633E-3
1.902030230E-1,-1.997369109E-3,-2.703106217E-2,-5.193159916E-3
1.927162520E-1,-9.454214014E-3,-3.235737979E-2,-9.454214014E-3
1.952294820E-1,-1.051947754E-2,-3.555316851E-2,-1.265000459E-2
1.977427110E-1,-9.454214014E-3,-4.194474965E-2,-1.691105776E-2
2.002559400E-1,-1.158474106E-2,-4.940159619E-2,-2.117211185E-2
2.027691690E-1,-1.371526811E-2,-5.366265029E-2,-2.543316595E-2
2.052823980E-1,-1.691105776E-2,-6.005423144E-2,-2.862895653E-2
2.077956270E-1,-1.691105776E-2,-6.964160502E-2,-2.862895653E-2
2.103088570E-1,-1.797632128E-2,-7.922897488E-2,-3.289001063E-2
2.128220860E-1,-2.543316595E-2,-8.775108308E-2,-3.502053767E-2
2.153353150E-1,-2.436790243E-2,-9.414266050E-2,-3.715106472E-2
2.178485440E-1,-2.223737538E-2,-9.520792961E-2,-3.715106472E-2
2.203617730E-1,-2.649842948E-2,-9.414266050E-2,-4.034685716E-2
2.228750020E-1,-2.649842948E-2,-9.627319127E-2,-4.141211882E-2
2.253882320E-1,-2.649842948E-2,-9.094687551E-2,-4.247738421E-2
2.279014610E-1,-2.436790243E-2,-8.881634474E-2,-4.354264587E-2
2.304146900E-1,-2.756369300E-2,-8.455529064E-2,-4.247738421E-2
2.329279190E-1,-2.543316595E-2,-8.029423654E-2,-4.034685716E-2
2.354411480E-1,-2.223737538E-2,-7.709844410E-2,-3.928159177E-2
2.379543770E-1,-1.904158480E-2,-7.177212834E-2,-3.502053767E-2
2.404676070E-1,-1.904158480E-2,-6.751107424E-2,-3.395527601E-2
2.429807840E-1,-1.584579423E-2,-6.325002015E-2,-3.502053767E-2
2.454940130E-1,-1.584579423E-2,-5.579317734E-2,-2.862895653E-2
2.480072420E-1,-9.454214014E-3,-5.046685785E-2,-2.543316595E-2
2.505204710E-1,-8.388950489E-3,-4.407527670E-2,-2.330263890E-2
2.530337000E-1,-7.323686965E-3,-4.087948799E-2,-2.223737538E-2
2.555469290E-1,-5.193159916E-3,-3.342264146E-2,-2.330263890E-2
2.580601590E-1,1.331579406E-4,-2.809632570E-2,-2.117211185E-2
2.605733880E-1,1.331579406E-4,-2.063948102E-2,-1.797632128E-2
2.630866170E-1,4.394211806E-3,-1.637842692E-2,-1.691105776E-2
2.655998460E-1,7.590002380E-3,-1.744369045E-2,-1.904158480E-2
2.681130750E-1,1.078579295E-2,-1.424789988E-2,-1.691105776E-2
2.706263040E-1,1.185105648E-2,-9.986845776E-3,-1.691105776E-2
2.731395340E-1,1.504684705E-2,-5.725791678E-3,-1.478053164E-2
2.756527630E-1,1.611211151E-2,-2.530000871E-3,-1.478053164E-2
2.781659920E-1,1.717737503E-2,1.731053228E-3,-1.691105776E-2
2.806792210E-1,2.037316561E-2,1.731053228E-3,-1.584579423E-2
2.831924500E-1,2.463421971E-2,6.657897029E-4,-2.010684833E-2
2.857056790E-1,2.250369266E-2,5.992107093E-3,-1.797632128E-2
2.882189090E-1,2.356895618E-2,3.861580277E-3,-2.010684833E-2
2.907321380E-1,2.889527380E-2,1.731053228E-3,-2.117211185E-2
2.932453670E-1,2.783001028E-2,-6.657897029E-3,-2.223737538E-2
2.957585960E-1,2.783001028E-2,-9.853687137E-3,-2.010684833E-2
2.982718250E-1,2.569948323E-2,-1.198421419E-2,-2.756369300E-2
3.007850540E-1,2.356895618E-2,-2.050632238E-2,-2.436790243E-2
3.032982840E-1,1.824263856E-2,-2.583264001E-2,-2.436790243E-2
3.058115130E-1,1.398158353E-2,-3.542001173E-2,-2.756369300E-2
3.083247420E-1,3.328948515E-3,-4.500738531E-2,-3.075948358E-2
3.108379710E-1,-1.997369109E-3,-4.607264698E-2,-2.649842948E-2
3.133512000E-1,-1.158474106E-2,-4.607264698E-2,-2.543316595E-2
3.158644290E-1,-2.330263890E-2,-4.820317402E-2,-2.543316595E-2
3.183776590E-1,-3.289001063E-2,-4.181159288E-2,-2.756369300E-2
3.208908880E-1,-3.928159177E-2,-4.074633121E-2,-2.756369300E-2
3.234041170E-1,-4.780369997E-2,-4.500738531E-2,-2.436790243E-2
3.259173460E-1,-6.165212765E-2,-4.287685826E-2,-2.436790243E-2
3.284305750E-1,-6.364949793E-2,-4.394211993E-2,-2.223737538E-2
3.309437520E-1,-7.110633701E-2,-4.607264698E-2,-2.117211185E-2
3.334569820E-1,-7.962844521E-2,-4.713791236E-2,-2.117211185E-2
3.359702110E-1,-8.602003008E-2,-4.713791236E-2,-1.797632128E-2
3.384834400E-1,-8.921582252E-2,-4.607264698E-2,-1.478053164E-2
3.409966690E-1,-9.134634584E-2,-3.968106583E-2,-1.478053164E-2
3.435098980E-1,-8.815055341E-2,-3.115895763E-2,-1.371526811E-2
3.460231270E-1,-8.815055341E-2,-2.796316706E-2,-1.371526811E-2
3.485363570E-1,-8.495476842E-2,-2.689790353E-2,-1.265000459E-2
3.510495860E-1,-7.749792188E-2,-1.944105886E-2,-1.265000459E-2
3.535628150E-1,-6.791055202E-2,-9.853687137E-3,-1.051947754E-2
3.560760440E-1,-6.045370549E-2,-1.411474124E-2,-1.051947754E-2
3.585892730E-1,-5.512738600E-2,-7.723160554E-3,-7.323686965E-3
3.611025020E-1,-4.447475076E-2,7.989476435E-4,-8.388950489E-3
3.636157320E-1,-3.488738090E-2,8.255792782E-3,-1.158474106E-2
3.661289610E-1,-2.636527270E-2,1.251684688E-2,-1.158474106E-2
3.686421900E-1,-1.677790098E-2,1.464737393E-2,-7.323686965E-3
3.711554190E-1,-2.929474693E-3,1.358211040E-2,-8.388950489E-3
3.736686480E-1,8.788423613E-3,1.571263745E-2,-8.388950489E-3
3.761818770E-1,1.411474124E-2,1.145158336E-2,-6.258423440E-3
3.786951070E-1,2.263684943E-2,6.125265267E-3,-8.388950489E-3
3.812083360E-1,3.009369411E-2,1.864211168E-3,-7.323686965E-3
3.837215650E-1,3.755053878E-2,7.989476435E-4,-7.323686965E-3
3.862347940E-1,3.755053878E-2,-3.462106455E-3,-9.454214014E-3
3.887480230E-1,3.968106583E-2,-6.657897029E-3,-1.265000459E-2
3.912612520E-1,3.755053878E-2,-6.657897029E-3,-1.371526811E-2
3.937744820E-1,3.648527712E-2,-6.657897029E-3,-1.478053164E-2
3.962877110E-1,3.542001173E-2,-6.657897029E-3,-1.371526811E-2
3.988009400E-1,3.009369411E-2,-7.723160554E-3,-1.265000459E-2
4.013141690E-1,2.689790353E-2,-5.592633504E-3,-1.584579423E-2
4.038273980E-1,2.263684943E-2,-4.527369980E-3,-1.584579423E-2
4.063406270E-1,1.731053181E-2,-5.592633504E-3,-1.265000459E-2
4.088538570E-1,1.198421419E-2,-2.396842930E-3,-2.010684833E-2
4.113670860E-1,6.657897029E-3,-1.331579406E-3,-1.584579423E-2
4.138803150E-1,-7.989476435E-4,-1.331579406E-3,-1.478053164E-2
4.163934920E-1,-8.255792782E-3,-2.663158812E-4,-1.371526811E-2
4.189067210E-1,-1.571263745E-2,7.989476435E-4,-1.158474106E-2
4.214199500E-1,-2.103895508E-2,-2.396842930E-3,-9.454214014E-3
4.239331790E-1,-2.530000918E-2,-1.331579406E-3,-9.454214014E-3
4.264464090E-1,-3.169158846E-2,-2.396842930E-3,-8.388950489E-3
4.289596380E-1,-3.701790795E-2,-4.527369980E-3,-6.258423440E-3
4.314728670E-1,-4.021369666E-2,-6.657897029E-3,-4.127896391E-3
4.339860960E-1,-4.340948910E-2,-6.657897029E-3,-3.062632633E-3
4.364993250E-1,-4.660527781E-2,-8.788423613E-3,1.331579406E-4
4.390125540E-1,-4.660527781E-2,-1.091895066E-2,-3.062632633E-3
4.415257840E-1,-4.447475076E-2,-8.788423613E-3,-1.997369109E-3
4.440390130E-1,-4.873580486E-2,-1.411474124E-2,-3.062632633E-3
4.465522420E-1,-4.980107024E-2,-1.518000476E-2,-9.321055841E-4
4.490654710E-1,-4.554001614E-2,-1.624526829E-2,-9.321055841E-4
4.515787000E-1,-4.234422371E-2,-2.157158591E-2,1.331579406E-4
4.540919290E-1,-4.127896205E-2,-1.731053181E-2,1.331579406E-4
4.566051590E-1,-3.701790795E-2,-1.304947771E-2,-4.127896391E-3
4.591183880E-1,-3.275685385E-2,-1.731053181E-2,-4.127896391E-3
4.616316170E-1,-3.275685385E-2,-1.411474124E-2,-4.127896391E-3
4.641448460E-1,-2.849579975E-2,-7.723160554E-3,-1.997369109E-3
4.666580750E-1,-2.210421860E-2,-5.592633504E-3,-1.997369109E-3
4.691713040E-1,-1.571263745E-2,-3.462106455E-3,-4.127896391E-3
4.716845340E-1,-7.190528791E-3,2.929474693E-3,-4.127896391E-3
4.741977630E-1,-7.190528791E-3,2.929474693E-3,-5.193159916E-3
4.767109920E-1,-7.989476435E-4,6.125265267E-3,-6.258423440E-3
4.792242210E-1,5.592633504E-3,1.038631983E-2,-4.127896391E-3
4.817374500E-1,6.657897029E-3,1.571263745E-2,-3.062632633E-3
4.842506790E-1,8.788423613E-3,1.784316450E-2,-9.321055841E-4
4.867639090E-1,1.304947771E-2,1.571263745E-2,-3.062632633E-3
4.892771380E-1,1.198421419E-2,1.890842803E-2,-9.321055841E-4
4.917903670E-1,1.304947771E-2,1.784316450E-2,-9.321055841E-4
4.943035960E-1,7.723160554E-3,1.784316450E-2,-9.321055841E-4
4.968168250E-1,5.592633504E-3,1.890842803E-2,-1.997369109E-3
4.993300540E-1,1.091895066E-2,1.784316450E-2,-4.127896391E-3
5.018432840E-1,9.853687137E-3,1.571263745E-2,1.331579406E-4
5.043564610E-1,2.396842930E-3,1.677790098E-2,3.328948515E-3
5.068696900E-1,-2.929474693E-3,1.038631983E-2,1.331579406E-4
5.093829190E-1,-5.060001742E-3,1.145158336E-2,1.331579406E-4
5.118961480E-1,-6.125265267E-3,9.321056306E-3,-1.997369109E-3
5.144093770E-1,-1.464737393E-2,3.994738217E-3,-1.997369109E-3
5.169226070E-1,-1.358211040E-2,5.060001742E-3,-1.997369109E-3
5.194358360E-1,-1.251684688E-2,4.127896391E-3,1.331579406E-4
5.219490650E-1,-1.358211040E-2,-1.331579406E-4,-3.062632633E-3
5.244622940E-1,-1.251684688E-2,-2.263684990E-3,-4.127896391E-3
5.269755230E-1,-1.145158336E-2,-5.459475331E-3,-5.193159916E-3
5.294887520E-1,-1.145158336E-2,-7.590002380E-3,-8.388950489E-3
5.320019820E-1,-1.251684688E-2,-1.291632000E-2,-6.258423440E-3
5.345152110E-1,-6.125265267E-3,-1.398158353E-2,-8.388950489E-3
5.370283880E-1,-2.929474693E-3,-1.717737503E-2,-1.051947754E-2
5.395416690E-1,-7.989476435E-4,-2.143842913E-2,-9.454214014E-3
5.420548980E-1,1.331579406E-3,-2.250369266E-2,-9.454214014E-3
5.445681270E-1,3.462106455E-3,-2.037316561E-2,-8.388950489E-3
5.470813570E-1,5.592633504E-3,-1.930790208E-2,-7.323686965E-3
5.495945860E-1,4.527369980E-3,-2.250369266E-2,-9.454214014E-3
5.521078150E-1,4.527369980E-3,-2.250369266E-2,-1.051947754E-2
5.546210440E-1,4.527369980E-3,-2.143842913E-2,-9.454214014E-3
5.571342730E-1,4.527369980E-3,-1.717737503E-2,-8.388950489E-3
5.596475020E-1,3.462106455E-3,-1.717737503E-2,-9.454214014E-3
5.621607840E-1,2.396842930E-3,-1.611211151E-2,-1.158474106E-2
5.646740130E-1,1.331579406E-3,-1.078579295E-2,-1.158474106E-2
5.671872420E-1,-2.929474693E-3,-4.394211806E-3,-7.323686965E-3
5.697004710E-1,-7.190528791E-3,-2.263684990E-3,-6.258423440E-3
5.722137000E-1,-3.994738217E-3,9.321055841E-4,-8.388950489E-3
5.747269290E-1,-1.864211168E-3,5.193159916E-3,-8.388950489E-3
5.772401590E-1,-5.060001742E-3,5.193159916E-3,-1.051947754E-2
5.797533880E-1,-8.255792782E-3,5.193159916E-3,-9.454214014E-3
5.822666170E-1,-9.321056306E-3,9.454214014E-3,-9.454214014E-3
5.847798460E-1,-8.255792782E-3,5.193159916E-3,-9.454214014E-3
5.872931270E-1,-9.321056306E-3,4.127896391E-3,-9.454214014E-3
5.898063570E-1,-1.038631983E-2,1.997369109E-3,-8.388950489E-3
5.923195860E-1,-8.255792782E-3,-4.394211806E-3,-9.454214014E-3
5.948328150E-1,-1.145158336E-2,-8.655265905E-3,-7.323686965E-3
5.973460440E-1,-1.145158336E-2,-1.398158353E-2,-7.323686965E-3
5.998592730E-1,-8.255792782E-3,-1.398158353E-2,-4.127896391E-3
6.023725020E-1,-5.060001742E-3,-1.398158353E-2,-3.062632633E-3
6.048857320E-1,2.663158812E-4,-1.504684705E-2,-9.321055841E-4
6.073989610E-1,2.663158812E-4,-1.611211151E-2,1.331579406E-4
6.099121900E-1,2.396842930E-3,-1.078579295E-2,-9.321055841E-4
6.124254710E-1,3.462106455E-3,-9.720529430E-3,1.198421465E-3
6.149387000E-1,2.396842930E-3,-6.524738856E-3,-1.997369109E-3
6.174519290E-1,7.723160554E-3,-6.524738856E-3,-1.997369109E-3
6.199651590E-1,1.091895066E-2,-4.394211806E-3,-3.062632633E-3
6.224783880E-1,1.198421419E-2,-1.331579406E-4,-1.997369109E-3
6.249916170E-1,1.304947771E-2,5.193159916E-3,-9.321055841E-4
6.275048460E-1,1.518000476E-2,5.193159916E-3,1.331579406E-4
6.300180750E-1,2.157158591E-2,4.127896391E-3,-4.127896391E-3
6.325313040E-1,2.370211296E-2,7.323686965E-3,-3.062632633E-3
6.350445340E-1,2.583264001E-2,5.193159916E-3,-9.321055841E-4
6.375578150E-1,2.796316706E-2,6.258423440E-3,1.198421465E-3
6.400710440E-1,2.583264001E-2,4.127896391E-3,1.331579406E-4
6.425842730E-1,2.370211296E-2,3.062632633E-3,-1.997369109E-3
6.450975020E-1,2.476737648E-2,-1.331579406E-4,1.331579406E-4
6.476107320E-1,2.370211296E-2,9.321055841E-4,3.328948515E-3
6.501239610E-1,1.944105886E-2,3.062632633E-3,3.328948515E-3
6.526371900E-1,1.731053181E-2,1.997369109E-3,3.328948515E-3
6.551504190E-1,1.304947771E-2,3.062632633E-3,5.459475331E-3
6.576636480E-1,5.592633504E-3,9.321055841E-4,4.394211806E-3
6.601769290E-1,1.331579406E-3,-3.328948515E-3,5.459475331E-3
6.626901590E-1,-5.060001742E-3,-2.263684990E-3,3.328948515E-3
6.652033880E-1,-9.321056306E-3,-4.394211806E-3,1.198421465E-3
6.677166170E-1,-1.251684688E-2,-4.394211806E-3,1.331579406E-4
6.702298460E-1,-1.784316450E-2,-5.459475331E-3,-3.062632633E-3
6.727430750E-1,-1.890842803E-2,-7.590002380E-3,-5.193159916E-3
6.752563040E-1,-1.784316450E-2,-4.394211806E-3,-4.127896391E-3
6.777695340E-1,-2.103895508E-2,-3.328948515E-3,-4.127896391E-3
6.802827630E-1,-1.890842803E-2,-5.459475331E-3,-5.193159916E-3
6.827959920E-1,-1.677790098E-2,-8.655265905E-3,-5.193159916E-3
6.853092730E-1,-1.997369155E-2,-6.524738856E-3,-5.193159916E-3
6.878225020E-1,-1.677790098E-2,-1.198421465E-3,-6.258423440E-3
6.903357320E-1,-1.358211040E-2,-1.331579406E-4,-1.997369109E-3
6.928489610E-1,-6.125265267E-3,1.997369109E-3,-1.065263525E-3
6.953621900E-1,1.331579406E-3,5.193159916E-3,1.065263525E-3
6.978754190E-1,6.657897029E-3,5.193159916E-3,2.130527049E-3
7.003886480E-1,1.198421419E-2,5.193159916E-3,3.195790574E-3
7.029018770E-1,1.091895066E-2,5.193159916E-3,3.195790574E-3
7.054151070E-1,1.518000476E-2,3.062632633E-3,5.326317623E-3
7.079283360E-1,2.263684943E-2,8.388950489E-3,5.326317623E-3
7.104416170E-1,2.476737648E-2,1.265000459E-2,9.587371722E-3
7.129548460E-1,2.476737648E-2,1.051947754E-2,7.456844673E-3
7.154680750E-1,2.796316706E-2,1.478053164E-2,9.587371722E-3
7.179813040E-1,2.902843058E-2,1.371526811E-2,1.171789877E-2
7.204945340E-1,2.902843058E-2,1.691105776E-2,1.384842582E-2
7.230077630E-1,2.689790353E-2,2.010684833E-2,1.597895287E-2
7.255209920E-1,2.476737648E-2,1.691105776E-2,1.704421639E-2
7.280342210E-1,2.370211296E-2,2.117211185E-2,1.810947992E-2
7.305474500E-1,2.157158591E-2,2.756369300E-2,1.917474344E-2
7.330606790E-1,1.624526829E-2,3.182474896E-2,1.917474344E-2
7.355739610E-1,1.518000476E-2,3.075948358E-2,1.917474344E-2
7.380871900E-1,8.788423613E-3,3.608580306E-2,2.237053402E-2
7.406004190E-1,2.396842930E-3,3.502053767E-2,2.024000697E-2
7.431136480E-1,2.396842930E-3,3.608580306E-2,2.024000697E-2
7.456268770E-1,-2.929474693E-3,2.982737869E-2,2.130527049E-2
7.481401070E-1,-8.255792782E-3,2.876211517E-2,2.024000697E-2
7.506533360E-1,-1.251684688E-2,2.024000697E-2,1.810947992E-2
7.531665650E-1,-1.784316450E-2,1.704421639E-2,1.810947992E-2
7.556797940E-1,-2.423474565E-2,1.491368935E-2,1.810947992E-2
7.581930750E-1,-2.423474565E-2,7.456844673E-3,1.384842582E-2
7.607063040E-1,-2.636527270E-2,2.130527049E-3,1.597895287E-2
7.632195340E-1,-3.062632680E-2,-5.326317623E-3,1.384842582E-2
7.657327630E-1,-3.169158846E-2,-6.391581148E-3,1.065263525E-2
7.682459920E-1,-3.062632680E-2,-7.456844673E-3,1.065263525E-2
7.707592210E-1,-3.275685385E-2,-7.456844673E-3,6.391581148E-3
7.732724500E-1,-3.169158846E-2,-8.522108197E-3,5.326317623E-3
7.757856790E-1,-2.956106327E-2,-7.456844673E-3,5.326317623E-3
7.782989090E-1,-2.956106327E-2,-5.326317623E-3,2.130527049E-3
7.808121380E-1,-3.062632680E-2,-6.391581148E-3,-0.000000000E0
7.833254190E-1,-2.530000918E-2,-4.261054099E-3,-0.000000000E0
7.858386480E-1,-1.890842803E-2,3.195790574E-3,-1.065263525E-3
7.883518770E-1,-1.571263745E-2,2.130527049E-3,-1.065263525E-3
7.908651070E-1,-1.464737393E-2,5.326317623E-3,1.065263525E-3
7.933783360E-1,-8.255792782E-3,9.587371722E-3,-0.000000000E0
7.958915650E-1,-3.994738217E-3,1.384842582E-2,2.130527049E-3
7.984047940E-1,2.663158812E-4,1.171789877E-2,2.130527049E-3
8.009180230E-1,7.723160554E-3,1.704421639E-2,2.130527049E-3
8.034312520E-1,1.198421419E-2,1.491368935E-2,6.391581148E-3
8.059444820E-1,1.091895066E-2,2.024000697E-2,5.326317623E-3
8.084577630E-1,9.853687137E-3,1.917474344E-2,6.391581148E-3
8.109709920E-1,1.624526829E-2,2.130527049E-2,8.522108197E-3
8.134842210E-1,1.731053181E-2,2.237053402E-2,9.587371722E-3
8.159974500E-1,1.518000476E-2,2.556632459E-2,9.587371722E-3
8.185106790E-1,1.944105886E-2,2.876211517E-2,9.587371722E-3
8.210239090E-1,1.518000476E-2,2.769685164E-2,1.278316230E-2
8.235371380E-1,1.304947771E-2,2.769685164E-2,1.597895287E-2
8.260503670E-1,1.304947771E-2,2.769685164E-2,1.597895287E-2
8.285635960E-1,4.527369980E-3,2.237053402E-2,1.810947992E-2
8.310768770E-1,3.462106455E-3,2.237053402E-2,1.597895287E-2
8.335901070E-1,-7.989476435E-4,2.130527049E-2,1.810947992E-2
8.361033360E-1,-1.038631983E-2,1.704421639E-2,1.917474344E-2
8.386165650E-1,-1.677790098E-2,1.597895287E-2,2.237053402E-2
8.411297940E-1,-2.530000918E-2,1.491368935E-2,2.237053402E-2
8.436430230E-1,-2.956106327E-2,9.587371722E-3,2.450106107E-2
8.461562520E-1,-3.808316961E-2,8.522108197E-3,2.769685164E-2
8.486694820E-1,-4.767054319E-2,8.522108197E-3,2.663158812E-2
8.511827110E-1,-5.086633191E-2,5.326317623E-3,2.343579754E-2
8.536959400E-1,-5.725791305E-2,4.261054099E-3,2.556632459E-2
8.562092210E-1,-6.045370549E-2,2.130527049E-3,2.769685164E-2
8.587224500E-1,-6.258422881E-2,-2.130527049E-3,2.450106107E-2
8.612356790E-1,-6.258422881E-2,-2.130527049E-3,2.237053402E-2
8.637489090E-1,-6.045370549E-2,-2.130527049E-3,2.556632459E-2
8.662621380E-1,-6.045370549E-2,-6.391581148E-3,2.556632459E-2
8.687753670E-1,-6.364949793E-2,-5.326317623E-3,2.343579754E-2
8.712885960E-1,-6.151896715E-2,-5.326317623E-3,2.450106107E-2
8.738018250E-1,-5.406212434E-2,-3.195790574E-3,2.450106107E-2
8.763150540E-1,-4.980107024E-2,-5.326317623E-3,2.663158812E-2
8.788282840E-1,-4.447475076E-2,-3.195790574E-3,3.089264221E-2
8.813415650E-1,-3.595264256E-2,-1.065263525E-3,3.089264221E-2
8.838547940E-1,-3.275685385E-2,-5.326317623E-3,2.769685164E-2
8.863680230E-1,-2.516685054E-2,-2.130527049E-3,3.089264221E-2
8.888812520E-1,-1.771000586E-2,-2.130527049E-3,3.089264221E-2
8.913944820E-1,-1.238368824E-2,4.261054099E-3,3.195790574E-2
8.939077110E-1,-8.122634143E-3,7.456844673E-3,3.515369445E-2
8.964209400E-1,-1.731053228E-3,6.391581148E-3,3.621895984E-2
8.989341690E-1,3.994738217E-4,8.522108197E-3,3.621895984E-2
9.014473980E-1,2.530000871E-3,9.587371722E-3,3.834948689E-2
9.039606270E-1,1.464737346E-3,1.597895287E-2,4.048001394E-2
9.064739090E-1,3.994738217E-4,1.704421639E-2,3.941474855E-2
9.089871380E-1,2.530000871E-3,1.704421639E-2,4.154527932E-2
9.115003670E-1,3.994738217E-4,1.491368935E-2,4.367580265E-2
9.140135960E-1,-6.657897029E-4,1.917474344E-2,4.261054099E-2
9.165268250E-1,1.464737346E-3,1.917474344E-2,4.154527932E-2
9.190400540E-1,-2.796316752E-3,1.704421639E-2,3.834948689E-2
9.215532840E-1,-2.796316752E-3,1.597895287E-2,4.154527932E-2
9.240665130E-1,-4.926843569E-3,1.384842582E-2,4.048001394E-2
9.265797420E-1,-9.187897667E-3,1.065263525E-2,3.834948689E-2
9.290930230E-1,-1.238368824E-2,9.587371722E-3,3.834948689E-2
9.316062520E-1,-1.451421529E-2,7.456844673E-3,3.515369445E-2
9.341194820E-1,-1.451421529E-2,7.456844673E-3,3.834948689E-2
9.366327110E-1,-1.664474234E-2,6.391581148E-3,3.728422523E-2
9.391459400E-1,-1.771000586E-2,-0.000000000E0,3.728422523E-2
9.416591690E-1,-1.771000586E-2,-3.195790574E-3,3.941474855E-2
9.441723980E-1,-1.664474234E-2,-4.261054099E-3,4.154527932E-2
9.466856270E-1,-2.090579644E-2,-9.587371722E-3,3.834948689E-2
9.491988570E-1,-1.984053291E-2,-1.278316230E-2,4.048001394E-2
9.517120860E-1,-1.771000586E-2,-1.597895287E-2,3.834948689E-2
9.542253670E-1,-1.771000586E-2,-1.704421639E-2,3.834948689E-2
9.567385960E-1,-1.771000586E-2,-2.130527049E-2,4.154527932E-2
9.592518250E-1,-2.197105996E-2,-2.343579754E-2,3.941474855E-2
9.617650540E-1,-2.197105996E-2,-1.704421639E-2,3.621895984E-2
9.642782840E-1,-1.877526939E-2,-1.704421639E-2,3.728422523E-2
9.667915130E-1,-1.984053291E-2,-1.597895287E-2,3.834948689E-2
9.693047420E-1,-1.877526939E-2,-1.171789877E-2,3.728422523E-2
9.718179710E-1,-1.771000586E-2,-6.258423440E-3,3.834948689E-2
9.743312000E-1,-1.451421529E-2,-3.062632633E-3,3.728422523E-2
9.768444290E-1,-1.344895177E-2,1.198421465E-3,3.728422523E-2
9.793577110E-1,-1.131842472E-2,2.263684990E-3,3.834948689E-2
9.818709400E-1,-7.057370618E-3,9.720529430E-3,4.154527932E-2
9.843841690E-1,-2.796316752E-3,1.717737503E-2,3.834948689E-2
9.868973980E-1,1.464737346E-3,2.143842913E-2,3.941474855E-2
9.894106270E-1,1.464737346E-3,1.930790208E-2,4.367580265E-2
9.919238570E-1,6.791055202E-3,2.143842913E-2,4.474106804E-2
9.944370860E-1,8.921582252E-3,1.930790208E-2,4.474106804E-2
9.969503150E-1,1.105210930E-2,1.717737503E-2,4.687159508E-2
9.994635440E-1,1.105210930E-2,1.611211151E-2,4.580633342E-2
1.001976773E0,1.318263635E-2,1.398158353E-2,4.580633342E-2
1.004490054E0,1.318263635E-2,8.655265905E-3,4.687159508E-2
1.007003284E0,1.211737283E-2,8.655265905E-3,4.580633342E-2
1.009516513E0,1.105210930E-2,6.524738856E-3,4.261054099E-2
1.012029742E0,4.660528153E-3,5.459475331E-3,4.367580265E-2
1.014542971E0,3.595264396E-3,1.198421465E-3,4.154527932E-2
1.017056200E0,-6.657897029E-4,-9.321055841E-4,4.048001394E-2
1.019569429E0,-6.391581148E-3,-1.864211168E-3,3.728422523E-2
1.022082659E0,-9.587371722E-3,-2.929474693E-3,3.728422523E-2
1.024595888E0,-1.171789877E-2,-1.864211168E-3,3.515369445E-2
1.027109169E0,-1.810947992E-2,-2.929474693E-3,3.302317113E-2
1.029622398E0,-2.343579754E-2,2.663158812E-4,3.089264221E-2
1.032135627E0,-2.450106107E-2,1.331579406E-3,3.195790574E-2
1.034648857E0,-2.769685164E-2,2.663158812E-4,3.302317113E-2
1.037161929E0,-2.876211517E-2,1.331579406E-3,3.195790574E-2
1.039674950E0,-2.876211517E-2,3.462106455E-3,3.089264221E-2
1.042187971E0,-2.769685164E-2,3.462106455E-3,3.089264221E-2
1.044700940E0,-2.237053402E-2,-7.989476435E-4,2.769685164E-2
1.047213961E0,-2.130527049E-2,-2.929474693E-3,2.663158812E-2
1.049726982E0,-1.810947992E-2,-2.929474693E-3,2.769685164E-2
1.052239950E0,-1.171789877E-2,-2.929474693E-3,2.769685164E-2
1.054752971E0,-7.456844673E-3,-8.255792782E-3,2.769685164E-2
1.057265940E0,-4.261054099E-3,-9.321056306E-3,2.982737869E-2
1.059778961E0,5.326317623E-3,-1.145158336E-2,3.089264221E-2
1.062291982E0,8.522108197E-3,-1.784316450E-2,3.089264221E-2
1.064804950E0,1.171789877E-2,-1.784316450E-2,3.195790574E-2
1.067317971E0,1.597895287E-2,-1.677790098E-2,2.982737869E-2
1.069830992E0,1.810947992E-2,-2.316948213E-2,2.769685164E-2
1.072343961E0,2.130527049E-2,-2.530000918E-2,2.769685164E-2
1.074856982E0,2.237053402E-2,-2.743053623E-2,2.876211517E-2
1.077370002E0,2.343579754E-2,-2.956106327E-2,2.769685164E-2
1.079882971E0,2.769685164E-2,-2.530000918E-2,3.089264221E-2
1.082395992E0,2.663158812E-2,-2.530000918E-2,2.769685164E-2
1.084908961E0,2.237053402E-2,-2.103895508E-2,2.450106107E-2
1.087421982E0,2.450106107E-2,-1.997369155E-2,2.024000697E-2
1.089935002E0,2.343579754E-2,-1.997369155E-2,1.704421639E-2
1.092447971E0,1.917474344E-2,-1.997369155E-2,1.491368935E-2
1.094960992E0,1.810947992E-2,-1.890842803E-2,1.491368935E-2
1.097474013E0,1.278316230E-2,-1.677790098E-2,1.384842582E-2
1.099986982E0,1.384842582E-2,-1.890842803E-2,1.491368935E-2
1.102500002E0,1.384842582E-2,-2.103895508E-2,1.810947992E-2
1.105013023E0,1.171789877E-2,-1.784316450E-2,1.597895287E-2
1.107525992E0,8.522108197E-3,-1.677790098E-2,1.917474344E-2
1.110039013E0,6.391581148E-3,-1.358211040E-2,1.917474344E-2
1.112551982E0,4.261054099E-3,-1.145158336E-2,2.343579754E-2
1.115065002E0,1.065263525E-3,-1.038631983E-2,2.450106107E-2
1.117578023E0,4.261054099E-3,-1.145158336E-2,2.556632459E-2
1.120090992E0,2.130527049E-3,-8.255792782E-3,2.769685164E-2
1.122604013E0,-2.130527049E-3,-7.190528791E-3,2.876211517E-2
1.125117034E0,-2.130527049E-3,2.663158812E-4,3.195790574E-2
1.127630002E0,-4.261054099E-3,4.527369980E-3,3.089264221E-2
1.130143023E0,-7.456844673E-3,5.592633504E-3,2.663158812E-2
1.132656044E0,-8.522108197E-3,9.853687137E-3,2.663158812E-2
1.135169013E0,-1.171789877E-2,7.723160554E-3,2.556632459E-2
1.137682034E0,-1.597895287E-2,1.518000476E-2,2.450106107E-2
1.140195002E0,-1.065263525E-2,2.050632238E-2,2.130527049E-2
1.142708023E0,-1.278316230E-2,1.944105886E-2,2.024000697E-2
1.145221044E0,-1.597895287E-2,2.263684943E-2,1.810947992E-2
1.147734013E0,-1.810947992E-2,2.370211296E-2,1.810947992E-2
1.150247034E0,-1.597895287E-2,2.050632238E-2,1.491368935E-2
1.152760054E0,-1.810947992E-2,2.050632238E-2,1.491368935E-2
1.155273023E0,-1.810947992E-2,1.944105886E-2,1.491368935E-2
1.157786044E0,-1.810947992E-2,1.624526829E-2,1.491368935E-2
1.160299065E0,-2.130527049E-2,1.624526829E-2,1.384842582E-2
1.162812034E0,-1.810947992E-2,1.411474124E-2,9.587371722E-3
1.165325054E0,-1.704421639E-2,1.198421419E-2,5.326317623E-3
1.167838023E0,-1.597895287E-2,1.091895066E-2,7.456844673E-3
1.170351044E0,-1.597895287E-2,1.411474124E-2,4.261054099E-3
1.172864065E0,-1.384842582E-2,1.518000476E-2,2.130527049E-3
1.175377034E0,-1.278316230E-2,1.518000476E-2,2.130527049E-3
1.177890054E0,-1.171789877E-2,1.411474124E-2,1.065263525E-3
1.180403075E0,-8.522108197E-3,1.411474124E-2,-1.065263525E-3
1.182916044E0,-7.456844673E-3,1.304947771E-2,-3.195790574E-3
1.185429065E0,-5.326317623E-3,1.091895066E-2,-2.130527049E-3
1.187942034E0,-2.130527049E-3,1.091895066E-2,-1.065263525E-3
1.190455054E0,-0.000000000E0,1.198421419E-2,-3.195790574E-3
1.192968075E0,-0.000000000E0,9.853687137E-3,-1.065263525E-3
1.195481044E0,-1.065263525E-3,1.304947771E-2,-3.195790574E-3
1.197994065E0,1.065263525E-3,1.304947771E-2,-1.065263525E-3
1.200507086E0,1.065263525E-3,1.411474124E-2,2.130527049E-3
1.203020054E0,1.065263525E-3,1.624526829E-2,4.261054099E-3
1.205533075E0,4.261054099E-3,1.837579533E-2,2.130527049E-3
1.208046096E0,4.261054099E-3,1.837579533E-2,1.065263525E-3
1.210559065E0,1.065263525E-3,2.157158591E-2,-0.000000000E0
1.213072086E0,3.195790574E-3,2.263684943E-2,3.195790574E-3
1.215585054E0,-0.000000000E0,2.370211296E-2,3.195790574E-3
1.218098075E0,-3.195790574E-3,2.583264001E-2,5.326317623E-3
1.220611096E0,-4.261054099E-3,2.796316706E-2,7.456844673E-3
1.223124065E0,-6.391581148E-3,2.689790353E-2,3.195790574E-3
1.225637086E0,-9.587371722E-3,2.689790353E-2,5.326317623E-3
1.228150107E0,-1.491368935E-2,2.796316706E-2,5.326317623E-3
1.230663075E0,-1.810947992E-2,2.902843058E-2,5.326317623E-3
1.233176096E0,-2.130527049E-2,3.115895763E-2,6.391581148E-3
1.235689117E0,-2.343579754E-2,3.435475007E-2,6.391581148E-3
1.238202086E0,-2.343579754E-2,3.648527712E-2,7.456844673E-3
1.240715107E0,-2.450106107E-2,3.648527712E-2,7.456844673E-3
1.243228075E0,-2.450106107E-2,3.968106583E-2,7.456844673E-3
1.245741096E0,-2.450106107E-2,4.287685826E-2,7.456844673E-3
1.248254117E0,-2.556632459E-2,4.287685826E-2,6.391581148E-3
1.250767086E0,-2.130527049E-2,4.181159288E-2,7.456844673E-3
1.253280107E0,-1.704421639E-2,3.861580417E-2,8.522108197E-3
1.255793127E0,-1.917474344E-2,4.287685826E-2,8.522108197E-3
1.258306096E0,-1.491368935E-2,4.074633121E-2,7.456844673E-3
1.260819117E0,-1.171789877E-2,3.648527712E-2,8.522108197E-3
1.263332138E0,-1.384842582E-2,3.328948468E-2,9.587371722E-3
1.265845107E0,-1.278316230E-2,3.328948468E-2,5.326317623E-3
1.268358127E0,-9.587371722E-3,3.222422302E-2,6.391581148E-3
1.270871096E0,-5.326317623E-3,2.902843058E-2,6.391581148E-3
1.273384117E0,-2.130527049E-3,2.796316706E-2,7.456844673E-3
1.275897138E0,-2.130527049E-3,2.263684943E-2,4.261054099E-3
1.278410107E0,-1.065263525E-3,2.263684943E-2,4.261054099E-3
1.280923127E0,-1.065263525E-3,2.050632238E-2,-1.065263525E-3
1.283436148E0,-1.065263525E-3,1.518000476E-2,-1.065263525E-3
1.285949117E0,-0.000000000E0,1.624526829E-2,-1.065263525E-3
1.288462138E0,-1.065263525E-3,1.304947771E-2,-1.065263525E-3
1.290975159E0,-3.195790574E-3,1.624526829E-2,-1.065263525E-3
1.293488127E0,-3.195790574E-3,1.518000476E-2,-2.130527049E-3
1.296001148E0,-6.391581148E-3,1.198421419E-2,-2.130527049E-3
1.298514117E0,-6.391581148E-3,1.304947771E-2,1.065263525E-3
1.301027138E0,-5.326317623E-3,1.198421419E-2,1.065263525E-3
1.303540159E0,-8.522108197E-3,1.304947771E-2,2.130527049E-3
1.306053127E0,-7.456844673E-3,1.411474124E-2,5.326317623E-3
1.308566148E0,-1.065263525E-2,1.411474124E-2,6.391581148E-3
1.311079169E0,-1.171789877E-2,1.731053181E-2,1.065263525E-2
1.313592138E0,-1.384842582E-2,2.157158591E-2,1.278316230E-2
1.316105159E0,-1.065263525E-2,2.370211296E-2,1.278316230E-2
1.318618127E0,-1.278316230E-2,2.796316706E-2,1.491368935E-2
1.321131148E0,-1.171789877E-2,2.689790353E-2,1.704421639E-2
1.323644169E0,-1.171789877E-2,2.902843058E-2,2.024000697E-2
1.326157138E0,-9.587371722E-3,3.222422302E-2,2.130527049E-2
1.328670159E0,-7.456844673E-3,3.222422302E-2,2.237053402E-2
1.331183179E0,-7.456844673E-3,3.222422302E-2,2.130527049E-2
1.333696148E0,-5.326317623E-3,3.222422302E-2,2.024000697E-2
1.336209169E0,-6.391581148E-3,3.115895763E-2,2.450106107E-2
1.338722190E0,-8.522108197E-3,3.115895763E-2,2.556632459E-2
1.341235159E0,-8.522108197E-3,3.009369411E-2,2.450106107E-2
1.343748179E0,-7.456844673E-3,3.115895763E-2,2.343579754E-2
1.346261148E0,-1.065263525E-2,2.796316706E-2,2.450106107E-2
1.348774169E0,-1.171789877E-2,2.689790353E-2,2.556632459E-2
1.351287190E0,-1.384842582E-2,2.583264001E-2,2.663158812E-2
1.353800159E0,-1.384842582E-2,2.157158591E-2,2.769685164E-2
1.356313179E0,-1.597895287E-2,1.837579533E-2,2.556632459E-2
1.358826200E0,-1.491368935E-2,1.837579533E-2,2.556632459E-2
1.361339169E0,-1.384842582E-2,1.198421419E-2,2.982737869E-2
1.363852190E0,-1.384842582E-2,1.198421419E-2,2.769685164E-2
1.366365211E0,-1.065263525E-2,1.411474124E-2,2.876211517E-2
1.368878179E0,-9.587371722E-3,1.304947771E-2,2.663158812E-2
1.371391200E0,-1.171789877E-2,1.198421419E-2,2.663158812E-2
1.373904169E0,-1.171789877E-2,1.198421419E-2,2.556632459E-2
1.376417190E0,-4.261054099E-3,1.091895066E-2,2.343579754E-2
1.378930211E0,-6.391581148E-3,1.304947771E-2,2.556632459E-2
1.381443179E0,-7.456844673E-3,1.518000476E-2,2.450106107E-2
1.383956200E0,-5.326317623E-3,1.304947771E-2,2.343579754E-2
1.386469221E0,-5.326317623E-3,1.198421419E-2,2.237053402E-2
1.388982190E0,-6.391581148E-3,1.091895066E-2,1.917474344E-2
1.391495211E0,-3.195790574E-3,1.091895066E-2,2.024000697E-2
1.394008232E0,-0.000000000E0,1.411474124E-2,1.704421639E-2
1.396521200E0,1.065263525E-3,1.198421419E-2,1.597895287E-2
1.399034221E0,1.065263525E-3,1.624526829E-2,1.704421639E-2
1.401547190E0,4.261054099E-3,2.583264001E-2,1.278316230E-2
1.404060211E0,4.261054099E-3,2.476737648E-2,1.491368935E-2
1.406573232E0,4.261054099E-3,2.902843058E-2,1.491368935E-2
1.409086200E0,9.587371722E-3,3.009369411E-2,1.384842582E-2
1.411599221E0,1.065263525E-2,3.328948468E-2,1.384842582E-2
1.414112242E0,1.597895287E-2,3.115895763E-2,1.491368935E-2
1.416625211E0,2.024000697E-2,3.115895763E-2,1.491368935E-2
1.419138232E0,2.130527049E-2,2.902843058E-2,1.491368935E-2
1.421651252E0,2.450106107E-2,2.902843058E-2,1.704421639E-2
1.424164221E0,2.556632459E-2,2.796316706E-2,1.704421639E-2
1.426677242E0,2.663158812E-2,2.902843058E-2,1.810947992E-2
1.429190211E0,2.556632459E-2,2.476737648E-2,1.917474344E-2
1.431703232E0,2.343579754E-2,2.050632238E-2,1.810947992E-2
1.434216252E0,2.450106107E-2,1.837579533E-2,1.810947992E-2
1.436729221E0,2.237053402E-2,1.518000476E-2,1.810947992E-2
1.439242242E0,2.024000697E-2,1.091895066E-2,1.917474344E-2
1.441755263E0,1.810947992E-2,1.304947771E-2,2.024000697E-2
1.444268232E0,1.384842582E-2,1.198421419E-2,1.917474344E-2
1.446781252E0,8.522108197E-3,1.091895066E-2,1.704421639E-2
1.449294273E0,4.261054099E-3,8.788423613E-3,1.704421639E-2
1.451807242E0,-1.065263525E-3,8.788423613E-3,1.597895287E-2
1.454320263E0,-5.326317623E-3,7.723160554E-3,1.597895287E-2
1.456833232E0,-8.522108197E-3,8.788423613E-3,1.704421639E-2
1.459346252E0,-8.522108197E-3,8.788423613E-3,1.597895287E-2
1.461859273E0,-1.704421639E-2,6.657897029E-3,1.597895287E-2
1.464372242E0,-2.237053402E-2,7.723160554E-3,1.491368935E-2
1.466885263E0,-2.343579754E-2,8.788423613E-3,1.597895287E-2
1.469398284E0,-2.343579754E-2,9.853687137E-3,1.704421639E-2
1.471911252E0,-2.663158812E-2,1.091895066E-2,1.597895287E-2
1.474424273E0,-2.663158812E-2,9.853687137E-3,1.384842582E-2
1.476937242E0,-3.089264221E-2,1.091895066E-2,1.810947992E-2
1.479450263E0,-3.515369445E-2,1.091895066E-2,1.384842582E-2
1.481963284E0,-3.728422523E-2,1.091895066E-2,1.491368935E-2
1.484476252E0,-3.728422523E-2,1.091895066E-2,1.597895287E-2
1.486989273E0,-3.515369445E-2,1.091895066E-2,1.384842582E-2
1.489502294E0,-3.941474855E-2,1.091895066E-2,1.491368935E-2
1.492015263E0,-3.941474855E-2,9.853687137E-3,1.597895287E-2
1.494528284E0,-3.408843279E-2,9.853687137E-3,1.597895287E-2
1.497041304E0,-3.728422523E-2,1.411474124E-2,1.597895287E-2
1.499554273E0,-3.621895984E-2,1.624526829E-2,1.917474344E-2
1.502067294E0,-3.408843279E-2,1.731053181E-2,1.810947992E-2
1.504580263E0,-3.195790574E-2,1.944105886E-2,2.024000697E-2
1.507093284E0,-2.876211517E-2,1.837579533E-2,2.024000697E-2
1.509606304E0,-2.343579754E-2,1.944105886E-2,1.704421639E-2
1.512119273E0,-2.130527049E-2,1.837579533E-2,1.810947992E-2
1.514632294E0,-1.810947992E-2,1.731053181E-2,2.130527049E-2
1.517145315E0,-1.491368935E-2,1.837579533E-2,1.917474344E-2
1.519658284E0,-1.065263525E-2,1.731053181E-2,1.917474344E-2
1.522171304E0,-4.261054099E-3,1.944105886E-2,1.597895287E-2
1.524684325E0,-3.195790574E-3,1.731053181E-2,1.171789877E-2
1.527197294E0,1.065263525E-3,1.411474124E-2,1.278316230E-2
1.529710315E0,1.065263525E-2,1.411474124E-2,1.171789877E-2
1.532223284E0,1.384842582E-2,1.198421419E-2,9.587371722E-3
1.534736304E0,1.491368935E-2,8.788423613E-3,7.456844673E-3
1.537249377E0,2.024000697E-2,8.788423613E-3,4.261054099E-3
1.539762554E0,2.343579754E-2,8.788423613E-3,2.130527049E-3
1.542275732E0,2.450106107E-2,6.657897029E-3,2.130527049E-3
1.544788909E0,2.556632459E-2,4.527369980E-3,1.065263525E-3
1.547302138E0,2.982737869E-2,3.462106455E-3,1.065263525E-3
1.549815315E0,2.982737869E-2,-1.864211168E-3,2.130527049E-3
1.552328492E0,2.876211517E-2,-3.994738217E-3,2.130527049E-3
1.554841669E0,2.663158812E-2,-7.989476435E-4,6.391581148E-3
1.557354846E0,2.450106107E-2,-3.994738217E-3,3.195790574E-3
1.559868023E0,2.130527049E-2,-6.125265267E-3,4.261054099E-3
1.562381252E0,1.597895287E-2,-8.255792782E-3,3.195790574E-3
1.564894429E0,1.491368935E-2,-9.321056306E-3,2.130527049E-3
1.567407607E0,1.278316230E-2,-9.321056306E-3,2.130527049E-3
1.569920784E0,7.456844673E-3,-9.321056306E-3,2.130527049E-3
1.572433961E0,3.195790574E-3,-1.038631983E-2,3.195790574E-3
1.574947138E0,-3.195790574E-3,-9.321056306E-3,3.195790574E-3
1.577460367E0,-5.326317623E-3,-1.251684688E-2,3.195790574E-3
1.579973544E0,-8.522108197E-3,-1.358211040E-2,3.195790574E-3
1.582486721E0,-1.278316230E-2,-1.038631983E-2,3.195790574E-3
1.584999898E0,-1.917474344E-2,-1.038631983E-2,3.195790574E-3
1.587513075E0,-1.704421639E-2,-1.251684688E-2,2.130527049E-3
1.590026252E0,-1.810947992E-2,-8.255792782E-3,1.065263525E-3
1.592539482E0,-1.917474344E-2,-6.125265267E-3,1.065263525E-3
1.595052659E0,-2.024000697E-2,-7.190528791E-3,-0.000000000E0
1.597565836E0,-1.704421639E-2,-7.190528791E-3,-0.000000000E0
1.600079013E0,-1.278316230E-2,-8.255792782E-3,1.065263525E-3
1.602592190E0,-1.491368935E-2,-1.145158336E-2,-2.130527049E-3
1.605105367E0,-1.065263525E-2,-1.251684688E-2,-2.130527049E-3
1.607618544E0,-7.456844673E-3,-1.145158336E-2,-3.195790574E-3
1.610131773E0,-2.130527049E-3,-1.571263745E-2,-2.130527049E-3
1.612644950E0,-2.130527049E-3,-1.358211040E-2,-6.391581148E-3
1.615158127E0,-0.000000000E0,-9.321056306E-3,-8.522108197E-3
1.617671304E0,4.261054099E-3,-1.145158336E-2,-5.326317623E-3
1.620184482E0,7.456844673E-3,-8.255792782E-3,-8.522108197E-3
1.622697659E0,6.391581148E-3,-7.190528791E-3,-1.171789877E-2
1.625210888E0,8.522108197E-3,-6.125265267E-3,-9.587371722E-3
1.627724065E0,9.587371722E-3,-5.060001742E-3,-9.587371722E-3
1.630237242E0,1.065263525E-2,-2.929474693E-3,-1.065263525E-2
1.632750419E0,1.171789877E-2,1.331579406E-3,-1.171789877E-2
1.635263596E0,1.491368935E-2,6.657897029E-3,-1.278316230E-2
1.637776773E0,1.384842582E-2,1.091895066E-2,-1.171789877E-2
1.640290002E0,1.384842582E-2,1.411474124E-2,-1.278316230E-2
1.642803179E0,1.597895287E-2,1.731053181E-2,-9.587371722E-3
1.645316357E0,1.491368935E-2,1.837579533E-2,-6.391581148E-3
1.647829534E0,9.587371722E-3,1.624526829E-2,-6.391581148E-3
1.650342711E0,7.456844673E-3,1.837579533E-2,-5.326317623E-3
1.652855888E0,1.384842582E-2,1.304947771E-2,-8.522108197E-3
1.655369117E0,9.587371722E-3,9.853687137E-3,-6.391581148E-3
1.657882294E0,1.065263525E-2,3.462106455E-3,-6.391581148E-3
1.660395471E0,6.391581148E-3,2.663158812E-4,-4.261054099E-3
1.662908648E0,5.326317623E-3,-5.060001742E-3,-5.326317623E-3
1.665421825E0,5.326317623E-3,-1.251684688E-2,-4.261054099E-3
1.667935002E0,2.130527049E-3,-1.571263745E-2,-4.261054099E-3
1.670448179E0,-0.000000000E0,-1.677790098E-2,-3.195790574E-3
1.672961409E0,-5.326317623E-3,-2.423474565E-2,-1.065263525E-3
1.675474586E0,-1.171789877E-2,-2.636527270E-2,-3.195790574E-3
1.677987763E0,-1.491368935E-2,-2.103895508E-2,-4.261054099E-3
1.680500940E0,-1.704421639E-2,-2.210421860E-2,-1.065263525E-3
1.683014117E0,-1.917474344E-2,-2.210421860E-2,1.065263525E-3
1.685527294E0,-1.917474344E-2,-1.784316450E-2,-1.065263525E-3
1.688040523E0,-1.810947992E-2,-1.677790098E-2,-2.130527049E-3
1.690553700E0,-1.917474344E-2,-1.890842803E-2,-0.000000000E0
1.693066877E0,-1.597895287E-2,-1.464737393E-2,-0.000000000E0
1.695580054E0,-1.917474344E-2,-8.255792782E-3,2.130527049E-3
1.698093232E0,-1.810947992E-2,-3.994738217E-3,1.065263525E-3
1.700606409E0,-1.278316230E-2,-8.255792782E-3,3.195790574E-3
1.703119638E0,-1.065263525E-2,-5.060001742E-3,4.261054099E-3
1.705632815E0,-8.522108197E-3,-1.864211168E-3,4.261054099E-3
1.708145992E0,-7.456844673E-3,-2.929474693E-3,5.326317623E-3
1.710659169E0,-6.391581148E-3,1.331579406E-3,8.522108197E-3
1.713172346E0,-2.130527049E-3,3.462106455E-3,5.326317623E-3
1.715685523E0,-0.000000000E0,4.527369980E-3,7.456844673E-3
1.718198752E0,1.065263525E-3,5.592633504E-3,9.587371722E-3
1.720711929E0,5.326317623E-3,4.527369980E-3,1.065263525E-2
1.723225107E0,1.065263525E-2,2.396842930E-3,7.456844673E-3
1.725738284E0,1.065263525E-2,-1.864211168E-3,9.587371722E-3
1.728251461E0,9.587371722E-3,-7.989476435E-4,7.456844673E-3
1.730764638E0,1.065263525E-2,2.663158812E-4,8.522108197E-3
1.733277815E0,1.171789877E-2,-2.929474693E-3,9.587371722E-3
1.735791044E0,1.065263525E-2,-6.125265267E-3,7.456844673E-3
1.738304221E0,1.065263525E-2,-1.145158336E-2,6.391581148E-3
1.740817398E0,8.522108197E-3,-1.251684688E-2,9.587371722E-3
1.743330575E0,6.391581148E-3,-1.464737393E-2,1.065263525E-2
1.745843752E0,7.456844673E-3,-1.464737393E-2,1.171789877E-2
1.748356929E0,3.195790574E-3,-1.251684688E-2,1.171789877E-2
1.750870159E0,-0.000000000E0,-1.251684688E-2,9.587371722E-3
1.753383336E0,2.130527049E-3,-1.038631983E-2,9.587371722E-3
1.755896513E0,-3.195790574E-3,-6.125265267E-3,9.587371722E-3
1.758409690E0,-4.261054099E-3,-1.864211168E-3,9.587371722E-3
1.760922867E0,-6.391581148E-3,-1.864211168E-3,1.171789877E-2
1.763436044E0,-5.326317623E-3,-7.989476435E-4,8.522108197E-3
1.765949273E0,-1.065263525E-2,-7.989476435E-4,7.456844673E-3
1.768462450E0,-9.587371722E-3,-2.929474693E-3,8.522108197E-3
1.770975627E0,-1.065263525E-2,-3.994738217E-3,8.522108197E-3
1.773488804E0,-1.278316230E-2,-2.929474693E-3,8.522108197E-3
1.776001982E0,-1.704421639E-2,-7.190528791E-3,1.065263525E-2
1.778515159E0,-1.384842582E-2,-1.038631983E-2,6.391581148E-3
1.781028388E0,-1.810947992E-2,-9.321056306E-3,5.326317623E-3
1.783541565E0,-2.024000697E-2,-1.038631983E-2,8.522108197E-3
1.786054742E0,-2.024000697E-2,-1.358211040E-2,7.456844673E-3
1.788567919E0,-2.343579754E-2,-1.571263745E-2,6.391581148E-3
1.791081096E0,-2.663158812E-2,-1.464737393E-2,7.456844673E-3
1.793594273E0,-2.663158812E-2,-1.677790098E-2,7.456844673E-3
1.796107450E0,-2.769685164E-2,-1.571263745E-2,6.391581148E-3
1.798620679E0,-2.982737869E-2,-1.038631983E-2,5.326317623E-3
1.801133857E0,-2.982737869E-2,-1.251684688E-2,8.522108197E-3
1.803647034E0,-2.876211517E-2,-1.251684688E-2,3.195790574E-3
1.806160211E0,-2.982737869E-2,-9.321056306E-3,4.261054099E-3
1.808673388E0,-2.237053402E-2,-6.125265267E-3,5.326317623E-3
1.811186565E0,-2.237053402E-2,-6.125265267E-3,3.195790574E-3
1.813699794E0,-2.237053402E-2,-3.994738217E-3,2.130527049E-3
1.816212971E0,-1.810947992E-2,-1.864211168E-3,4.261054099E-3
1.818726148E0,-1.917474344E-2,2.663158812E-4,-1.065263525E-3
1.821239325E0,-1.384842582E-2,1.331579406E-3,3.195790574E-3
1.823752502E0,-8.522108197E-3,1.331579406E-3,5.326317623E-3
1.826265679E0,-6.391581148E-3,1.331579406E-3,6.391581148E-3
1.828778909E0,3.195790574E-3,3.462106455E-3,7.456844673E-3
1.831292086E0,5.326317623E-3,4.527369980E-3,9.587371722E-3
1.833805263E0,7.456844673E-3,2.396842930E-3,9.587371722E-3
1.836318440E0,1.278316230E-2,1.331579406E-3,1.278316230E-2
1.838831617E0,1.384842582E-2,4.527369980E-3,1.704421639E-2
1.841344794E0,2.024000697E-2,4.527369980E-3,1.597895287E-2
1.843858023E0,2.769685164E-2,6.657897029E-3,1.597895287E-2
1.846371200E0,2.769685164E-2,3.462106455E-3,1.597895287E-2
1.848884377E0,2.876211517E-2,4.527369980E-3,1.597895287E-2
1.851397554E0,2.876211517E-2,4.527369980E-3,1.384842582E-2
1.853910732E0,2.769685164E-2,1.331579406E-3,1.384842582E-2
1.856423909E0,2.556632459E-2,2.663158812E-4,1.384842582E-2
1.858937086E0,2.450106107E-2,-7.989476435E-4,1.384842582E-2
1.861450315E0,2.024000697E-2,-2.929474693E-3,1.065263525E-2
1.863963492E0,1.597895287E-2,-8.255792782E-3,1.065263525E-2
1.866476669E0,1.065263525E-2,-8.255792782E-3,9.587371722E-3
1.868989846E0,6.391581148E-3,-8.255792782E-3,6.391581148E-3
1.871503023E0,-0.000000000E0,-1.464737393E-2,8.522108197E-3
1.874016200E0,-6.391581148E-3,-1.571263745E-2,8.522108197E-3
1.876529429E0,-1.065263525E-2,-1.571263745E-2,7.456844673E-3
1.879042607E0,-1.704421639E-2,-1.358211040E-2,1.065263525E-3
1.881555784E0,-2.237053402E-2,-1.571263745E-2,-3.195790574E-3
1.884068961E0,-2.556632459E-2,-1.784316450E-2,-4.261054099E-3
1.886582138E0,-2.982737869E-2,-1.997369155E-2,-7.456844673E-3
1.889095315E0,-3.195790574E-2,-2.210421860E-2,-8.522108197E-3
1.891608544E0,-2.876211517E-2,-2.316948213E-2,-9.587371722E-3
1.894121721E0,-3.089264221E-2,-1.890842803E-2,-7.456844673E-3
1.896634898E0,-2.982737869E-2,-2.103895508E-2,-9.587371722E-3
1.899148075E0,-2.450106107E-2,-2.103895508E-2,-9.587371722E-3
1.901661252E0,-2.237053402E-2,-2.636527270E-2,-9.587371722E-3
1.904174429E0,-1.491368935E-2,-2.849579975E-2,-8.522108197E-3
1.906687659E0,-7.456844673E-3,-2.636527270E-2,-8.522108197E-3
1.909200836E0,-3.195790574E-3,-2.743053623E-2,-5.326317623E-3
1.911714013E0,3.195790574E-3,-3.062632680E-2,-6.391581148E-3
1.914227190E0,9.587371722E-3,-2.956106327E-2,-3.195790574E-3
1.916740367E0,1.704421639E-2,-2.636527270E-2,-1.065263525E-3
1.919253544E0,2.130527049E-2,-2.636527270E-2,-4.261054099E-3
1.921766721E0,2.663158812E-2,-2.530000918E-2,-1.065263525E-3
1.924279950E0,3.302317113E-2,-1.997369155E-2,2.130527049E-3
1.926793127E0,3.621895984E-2,-1.784316450E-2,2.130527049E-3
1.929306304E0,4.154527932E-2,-1.784316450E-2,-0.000000000E0
1.931819482E0,4.367580265E-2,-1.464737393E-2,2.130527049E-3
1.934332659E0,4.261054099E-2,-1.464737393E-2,3.195790574E-3
1.936845836E0,4.048001394E-2,-1.784316450E-2,3.195790574E-3
1.939359065E0,3.941474855E-2,-2.103895508E-2,-1.065263525E-3
1.941872242E0,3.408843279E-2,-1.997369155E-2,5.326317623E-3
1.944385419E0,2.982737869E-2,-1.677790098E-2,3.195790574E-3
1.946898596E0,2.556632459E-2,-2.103895508E-2,2.130527049E-3
1.949411773E0,1.704421639E-2,-2.316948213E-2,-0.000000000E0
1.951924950E0,1.065263525E-2,-2.316948213E-2,-2.130527049E-3
1.954438179E0,6.391581148E-3,-2.103895508E-2,1.065263525E-3
1.956951357E0,-0.000000000E0,-1.997369155E-2,-3.195790574E-3
1.959464534E0,-6.391581148E-3,-2.316948213E-2,-4.261054099E-3
1.961977711E0,-1.171789877E-2,-2.530000918E-2,-1.065263525E-3
1.964490888E0,-1.810947992E-2,-2.103895508E-2,-1.065263525E-3
1.967004065E0,-2.130527049E-2,-1.890842803E-2,-2.130527049E-3
1.969517294E0,-2.450106107E-2,-1.997369155E-2,-0.000000000E0
1.972030471E0,-2.876211517E-2,-1.997369155E-2,3.195790574E-3
1.974543648E0,-2.982737869E-2,-1.784316450E-2,5.326317623E-3
1.977056825E0,-2.876211517E-2,-1.464737393E-2,7.456844673E-3
1.979570002E0,-2.982737869E-2,-1.784316450E-2,6.391581148E-3
1.982083179E0,-2.876211517E-2,-1.997369155E-2,7.456844673E-3
1.984596357E0,-2.769685164E-2,-1.997369155E-2,1.171789877E-2
1.987109586E0,-2.343579754E-2,-1.997369155E-2,1.597895287E-2
1.989622763E0,-1.917474344E-2,-1.784316450E-2,1.597895287E-2
1.992135940E0,-1.597895287E-2,-1.464737393E-2,1.704421639E-2
1.994649117E0,-1.065263525E-2,-1.890842803E-2,1.704421639E-2
1.997162294E0,-6.391581148E-3,-1.571263745E-2,1.917474344E-2
1.999675471E0,-3.195790574E-3,-1.251684688E-2,2.024000697E-2
2.002188700E0,-2.130527049E-3,-1.251684688E-2,2.024000697E-2
2.004701877E0,4.261054099E-3,-9.321056306E-3,2.024000697E-2
2.007215054E0,7.456844673E-3,-1.038631983E-2,2.130527049E-2
2.009728232E0,9.587371722E-3,-1.251684688E-2,1.917474344E-2
2.012241409E0,1.278316230E-2,-1.464737393E-2,1.704421639E-2
2.014754586E0,1.278316230E-2,-1.997369155E-2,1.597895287E-2
2.017267815E0,1.171789877E-2,-1.784316450E-2,1.597895287E-2
2.019780992E0,1.171789877E-2,-1.890842803E-2,1.597895287E-2
2.022294169E0,6.391581148E-3,-2.103895508E-2,1.810947992E-2
2.024807346E0,4.261054099E-3,-2.636527270E-2,1.491368935E-2
2.027320523E0,4.261054099E-3,-2.849579975E-2,1.171789877E-2
2.029833700E0,1.065263525E-3,-2.956106327E-2,1.278316230E-2
2.032346929E0,-4.261054099E-3,-2.956106327E-2,1.065263525E-2
2.034860107E0,-5.326317623E-3,-3.062632680E-2,8.522108197E-3
2.037373232E0,-9.587371722E-3,-2.956106327E-2,8.522108197E-3
2.039886357E0,-1.065263525E-2,-2.956106327E-2,5.326317623E-3
2.042399482E0,-1.278316230E-2,-2.849579975E-2,1.065263525E-3
2.044912659E0,-1.491368935E-2,-3.062632680E-2,3.195790574E-3
2.047425784E0,-1.278316230E-2,-2.423474565E-2,4.261054099E-3
2.049938909E0,-1.171789877E-2,-2.316948213E-2,5.326317623E-3
2.052452086E0,-1.065263525E-2,-2.103895508E-2,6.391581148E-3
2.054965211E0,-1.171789877E-2,-1.890842803E-2,8.522108197E-3
2.057478336E0,-8.522108197E-3,-1.784316450E-2,7.456844673E-3
2.059991513E0,-5.326317623E-3,-1.571263745E-2,9.587371722E-3
2.062504638E0,-1.065263525E-3,-1.464737393E-2,1.278316230E-2
2.065017763E0,-0.000000000E0,-1.358211040E-2,1.597895287E-2
2.067530940E0,2.130527049E-3,-1.145158336E-2,1.384842582E-2
2.070044065E0,6.391581148E-3,-1.038631983E-2,1.171789877E-2
2.072557190E0,7.456844673E-3,-1.251684688E-2,1.171789877E-2
2.075070367E0,5.326317623E-3,-1.038631983E-2,1.171789877E-2
2.077583492E0,5.326317623E-3,-8.255792782E-3,1.278316230E-2
2.080096617E0,1.065263525E-2,-6.125265267E-3,1.278316230E-2
2.082609794E0,1.491368935E-2,-8.255792782E-3,1.171789877E-2
2.085122919E0,1.171789877E-2,-8.255792782E-3,1.171789877E-2
2.087636044E0,9.587371722E-3,-7.190528791E-3,1.384842582E-2
2.090149221E0,9.587371722E-3,-9.321056306E-3,1.171789877E-2
2.092662346E0,1.065263525E-2,-1.145158336E-2,9.587371722E-3
2.095175471E0,6.391581148E-3,-1.251684688E-2,1.065263525E-2
2.097688648E0,5.326317623E-3,-1.145158336E-2,9.587371722E-3
2.100201773E0,7.456844673E-3,-1.251684688E-2,9.587371722E-3
2.102714898E0,5.326317623E-3,-1.997369155E-2,1.065263525E-2
2.105228075E0,5.326317623E-3,-2.103895508E-2,1.171789877E-2
2.107741200E0,3.195790574E-3,-1.784316450E-2,1.278316230E-2
2.110254325E0,-0.000000000E0,-2.316948213E-2,1.491368935E-2
2.112767502E0,-0.000000000E0,-2.530000918E-2,1.704421639E-2
2.115280627E0,1.065263525E-3,-2.423474565E-2,2.024000697E-2
2.117793752E0,2.130527049E-3,-2.956106327E-2,2.130527049E-2
2.120306929E0,-0.000000000E0,-3.169158846E-2,2.343579754E-2
2.122820054E0,-2.130527049E-3,-3.488738090E-2,2.556632459E-2
2.125333179E0,-4.261054099E-3,-3.275685385E-2,2.769685164E-2
2.127846357E0,-6.391581148E-3,-3.275685385E-2,3.089264221E-2
2.130359482E0,-1.065263525E-2,-3.169158846E-2,3.089264221E-2
2.132872607E0,-1.278316230E-2,-2.849579975E-2,3.195790574E-2
2.135385784E0,-1.810947992E-2,-2.956106327E-2,3.195790574E-2
2.137898909E0,-2.024000697E-2,-2.849579975E-2,3.089264221E-2
2.140412034E0,-2.343579754E-2,-2.103895508E-2,3.195790574E-2
2.142925211E0,-2.876211517E-2,-1.784316450E-2,2.663158812E-2
2.145438336E0,-3.515369445E-2,-1.571263745E-2,2.876211517E-2
2.147951461E0,-3.302317113E-2,-1.251684688E-2,2.663158812E-2
2.150464638E0,-3.834948689E-2,-9.321056306E-3,2.663158812E-2
2.152977763E0,-4.474106804E-2,-7.190528791E-3,2.450106107E-2
2.155490888E0,-4.793685675E-2,-6.125265267E-3,2.450106107E-2
2.158004065E0,-4.580633342E-2,-7.190528791E-3,2.237053402E-2
2.160517190E0,-4.687159508E-2,-5.060001742E-3,1.917474344E-2
2.163030315E0,-4.580633342E-2,-5.060001742E-3,1.917474344E-2
2.165543492E0,-4.580633342E-2,-7.190528791E-3,1.491368935E-2
2.168056617E0,-4.154527932E-2,-1.038631983E-2,1.171789877E-2
2.170569742E0,-4.048001394E-2,-1.251684688E-2,1.171789877E-2
2.173082919E0,-3.941474855E-2,-1.571263745E-2,9.587371722E-3
2.175596044E0,-2.982737869E-2,-1.784316450E-2,6.391581148E-3
2.178109169E0,-2.876211517E-2,-1.890842803E-2,6.391581148E-3
2.180622346E0,-2.450106107E-2,-2.210421860E-2,5.326317623E-3
2.183135471E0,-2.024000697E-2,-2.636527270E-2,3.195790574E-3
2.185648596E0,-1.704421639E-2,-2.849579975E-2,-0.000000000E0
2.188161773E0,-1.065263525E-2,-2.956106327E-2,4.261054099E-3
2.190674898E0,-4.261054099E-3,-3.595264256E-2,3.195790574E-3
2.193188075E0,-1.065263525E-3,-3.595264256E-2,2.130527049E-3
2.195701200E0,5.326317623E-3,-4.021369666E-2,2.130527049E-3
2.198214325E0,8.522108197E-3,-3.914843500E-2,4.261054099E-3
2.200727502E0,9.587371722E-3,-3.808316961E-2,4.261054099E-3
2.203240627E0,1.171789877E-2,-3.808316961E-2,3.195790574E-3
2.205753752E0,8.522108197E-3,-3.382211551E-2,3.195790574E-3
2.208266929E0,1.278316230E-2,-2.956106327E-2,5.326317623E-3
2.210780054E0,1.171789877E-2,-2.530000918E-2,4.261054099E-3
2.213293179E0,1.171789877E-2,-1.677790098E-2,5.326317623E-3
2.215806357E0,1.065263525E-2,-1.145158336E-2,8.522108197E-3
2.218319482E0,9.587371722E-3,-1.038631983E-2,7.456844673E-3
2.220832607E0,8.522108197E-3,-5.060001742E-3,8.522108197E-3
2.223345784E0,7.456844673E-3,2.396842930E-3,8.522108197E-3
2.225858909E0,6.391581148E-3,5.592633504E-3,1.278316230E-2
2.228372034E0,5.326317623E-3,8.788423613E-3,1.384842582E-2
2.230885211E0,2.130527049E-3,1.304947771E-2,1.704421639E-2
2.233398336E0,-1.065263525E-3,1.837579533E-2,1.917474344E-2
2.235911461E0,-5.326317623E-3,2.263684943E-2,2.237053402E-2
2.238424638E0,-8.522108197E-3,2.263684943E-2,2.024000697E-2
2.240937763E0,-1.171789877E-2,2.583264001E-2,2.130527049E-2
2.243450888E0,-1.278316230E-2,2.476737648E-2,2.237053402E-2
2.245964065E0,-1.810947992E-2,2.902843058E-2,2.343579754E-2
2.248477190E0,-2.237053402E-2,2.689790353E-2,2.769685164E-2
2.250990315E0,-2.450106107E-2,2.796316706E-2,2.769685164E-2
2.253503492E0,-2.876211517E-2,2.902843058E-2,2.663158812E-2
2.256016617E0,-2.450106107E-2,2.476737648E-2,2.343579754E-2
2.258529742E0,-2.556632459E-2,2.050632238E-2,2.024000697E-2
2.261042919E0,-2.343579754E-2,1.624526829E-2,2.024000697E-2
2.263556044E0,-2.343579754E-2,1.091895066E-2,1.491368935E-2
2.266069169E0,-2.450106107E-2,2.396842930E-3,1.491368935E-2
2.268582346E0,-1.597895287E-2,-3.994738217E-3,1.171789877E-2
2.271095471E0,-1.278316230E-2,-1.251684688E-2,8.522108197E-3
2.273608596E0,-1.171789877E-2,-1.997369155E-2,6.391581148E-3
2.276121773E0,-7.456844673E-3,-2.743053623E-2,5.326317623E-3
2.278634898E0,-5.326317623E-3,-3.169158846E-2,5.326317623E-3
2.281148023E0,-0.000000000E0,-3.488738090E-2,5.326317623E-3
2.283661200E0,4.261054099E-3,-3.808316961E-2,5.326317623E-3
2.286174325E0,5.326317623E-3,-3.595264256E-2,7.456844673E-3
2.288687450E0,6.391581148E-3,-3.914843500E-2,5.326317623E-3
2.291200627E0,1.171789877E-2,-3.808316961E-2,3.195790574E-3
2.293713752E0,1.278316230E-2,-3.595264256E-2,2.130527049E-3
2.296226877E0,1.171789877E-2,-3.169158846E-2,3.195790574E-3
2.298740054E0,1.704421639E-2,-2.743053623E-2,2.130527049E-3
2.301253179E0,2.024000697E-2,-2.636527270E-2,4.261054099E-3
2.303766304E0,2.130527049E-2,-2.316948213E-2,4.261054099E-3
2.306279482E0,2.237053402E-2,-1.571263745E-2,6.391581148E-3
2.308792607E0,2.343579754E-2,-1.251684688E-2,5.326317623E-3
2.311305732E0,2.024000697E-2,-1.358211040E-2,5.326317623E-3
2.313818909E0,1.810947992E-2,-1.251684688E-2,5.326317623E-3
2.316332034E0,1.704421639E-2,-1.145158336E-2,5.326317623E-3
2.318845159E0,1.597895287E-2,-1.038631983E-2,5.326317623E-3
2.321358336E0,1.491368935E-2,-1.145158336E-2,5.326317623E-3
2.323871461E0,8.522108197E-3,-7.190528791E-3,5.326317623E-3
2.326384586E0,6.391581148E-3,-5.060001742E-3,7.456844673E-3
2.328897763E0,4.261054099E-3,-1.864211168E-3,6.391581148E-3
2.331410888E0,-1.065263525E-3,-2.929474693E-3,5.326317623E-3
2.333924013E0,-1.065263525E-3,-1.864211168E-3,2.130527049E-3
2.336437190E0,-7.456844673E-3,3.462106455E-3,3.195790574E-3
2.338950315E0,-4.261054099E-3,-7.989476435E-4,2.130527049E-3
2.341463440E0,-4.261054099E-3,2.396842930E-3,3.195790574E-3
2.343976617E0,-9.587371722E-3,5.592633504E-3,5.326317623E-3
2.346489742E0,-1.065263525E-2,7.723160554E-3,4.261054099E-3
2.349002867E0,-1.065263525E-2,8.788423613E-3,2.130527049E-3
2.351516044E0,-1.384842582E-2,2.396842930E-3,3.195790574E-3
2.354029169E0,-1.171789877E-2,4.527369980E-3,-0.000000000E0
2.356542294E0,-1.065263525E-2,3.462106455E-3,2.130527049E-3
2.359055471E0,-9.587371722E-3,2.396842930E-3,1.065263525E-3
2.361568596E0,-6.391581148E-3,-3.994738217E-3,2.130527049E-3
2.364081721E0,-6.391581148E-3,-7.190528791E-3,4.261054099E-3
2.366594898E0,-7.456844673E-3,-6.125265267E-3,3.195790574E-3
2.369108023E0,-4.261054099E-3,-6.125265267E-3,4.261054099E-3
2.371621148E0,-0.000000000E0,-1.358211040E-2,3.195790574E-3
2.374134325E0,1.065263525E-3,-1.464737393E-2,2.130527049E-3
2.376647450E0,-0.000000000E0,-1.358211040E-2,-1.065263525E-3
2.379160575E0,-1.065263525E-3,-1.464737393E-2,-3.195790574E-3
2.381673752E0,-1.065263525E-3,-1.145158336E-2,-3.195790574E-3
2.384186877E0,-5.326317623E-3,-8.255792782E-3,-2.130527049E-3
2.386700002E0,-6.391581148E-3,-9.321056306E-3,-2.130527049E-3
2.389213179E0,-7.456844673E-3,-7.190528791E-3,-4.261054099E-3
2.391726304E0,-1.278316230E-2,-3.994738217E-3,-4.261054099E-3
2.394239429E0,-1.384842582E-2,-3.994738217E-3,-7.456844673E-3
2.396752607E0,-1.491368935E-2,-1.864211168E-3,-9.587371722E-3
2.399265732E0,-2.343579754E-2,2.663158812E-4,-9.587371722E-3
2.401778857E0,-2.556632459E-2,2.396842930E-3,-9.587371722E-3
2.404292034E0,-2.876211517E-2,5.592633504E-3,-7.456844673E-3
2.406805159E0,-2.876211517E-2,9.853687137E-3,-5.326317623E-3
2.409318284E0,-3.089264221E-2,1.411474124E-2,-4.261054099E-3
2.411831461E0,-3.302317113E-2,1.304947771E-2,-1.065263525E-3
2.414344586E0,-3.621895984E-2,1.518000476E-2,-3.195790574E-3
2.416857711E0,-3.728422523E-2,1.731053181E-2,-0.000000000E0
2.419370888E0,-3.515369445E-2,1.944105886E-2,-1.065263525E-3
2.421884013E0,-3.621895984E-2,1.944105886E-2,1.065263525E-3
2.424397190E0,-3.941474855E-2,2.050632238E-2,3.195790574E-3
2.426910315E0,-3.941474855E-2,1.944105886E-2,4.261054099E-3
2.429423440E0,-4.048001394E-2,1.837579533E-2,5.326317623E-3
2.431936617E0,-3.515369445E-2,1.624526829E-2,6.391581148E-3
2.434449742E0,-3.834948689E-2,1.518000476E-2,6.391581148E-3
2.436962867E0,-4.261054099E-2,1.411474124E-2,6.391581148E-3
2.439476044E0,-4.154527932E-2,1.091895066E-2,3.195790574E-3
2.441989169E0,-4.048001394E-2,7.723160554E-3,4.261054099E-3
2.444502294E0,-4.154527932E-2,8.788423613E-3,3.195790574E-3
2.447015471E0,-4.048001394E-2,7.723160554E-3,4.261054099E-3
2.449528596E0,-4.048001394E-2,1.091895066E-2,5.326317623E-3
2.452041721E0,-3.834948689E-2,1.198421419E-2,7.456844673E-3
2.454554898E0,-3.834948689E-2,1.304947771E-2,4.261054099E-3
2.457068023E0,-3.728422523E-2,1.624526829E-2,6.391581148E-3
2.459581148E0,-3.621895984E-2,1.411474124E-2,9.587371722E-3
2.462094325E0,-3.089264221E-2,1.304947771E-2,8.522108197E-3
2.464607450E0,-2.663158812E-2,7.723160554E-3,1.065263525E-2
2.467120575E0,-2.769685164E-2,2.396842930E-3,7.456844673E-3
2.469633752E0,-2.450106107E-2,-7.989476435E-4,8.522108197E-3
2.472146877E0,-1.917474344E-2,-7.190528791E-3,7.456844673E-3
2.474660002E0,-1.384842582E-2,-7.190528791E-3,6.391581148E-3
2.477173179E0,-1.810947992E-2,-9.321056306E-3,3.195790574E-3
2.479686304E0,-1.597895287E-2,-1.038631983E-2,6.391581148E-3
2.482199429E0,-1.491368935E-2,-1.358211040E-2,6.391581148E-3
2.484712607E0,-1.384842582E-2,-1.358211040E-2,3.195790574E-3
2.487225732E0,-1.491368935E-2,-1.145158336E-2,4.261054099E-3
2.489738857E0,-1.171789877E-2,-1.038631983E-2,4.261054099E-3
2.492252034E0,-1.384842582E-2,-1.038631983E-2,6.391581148E-3
2.494765159E0,-1.704421639E-2,-3.994738217E-3,7.456844673E-3
2.497278284E0,-2.343579754E-2,-2.929474693E-3,1.384842582E-2
2.499791461E0,-2.130527049E-2,5.592633504E-3,1.065263525E-2
2.502304586E0,-2.343579754E-2,9.853687137E-3,1.065263525E-2
2.504817711E0,-2.556632459E-2,1.091895066E-2,1.278316230E-2
2.507330888E0,-2.769685164E-2,1.518000476E-2,1.810947992E-2
2.509844013E0,-3.621895984E-2,1.624526829E-2,1.917474344E-2
2.512357138E0,-3.728422523E-2,1.304947771E-2,2.130527049E-2
2.514870315E0,-3.941474855E-2,1.518000476E-2,2.556632459E-2
2.517383440E0,-4.687159508E-2,9.853687137E-3,2.769685164E-2
2.519896565E0,-5.113264918E-2,5.592633504E-3,2.982737869E-2
2.522409742E0,-5.326317623E-2,-7.989476435E-4,3.302317113E-2
2.524922867E0,-5.965475738E-2,-2.929474693E-3,3.515369445E-2
2.527435992E0,-6.072001904E-2,-6.125265267E-3,4.048001394E-2
2.529949169E0,-6.285054982E-2,-8.255792782E-3,4.048001394E-2
2.532462294E0,-6.498107314E-2,-1.145158336E-2,4.154527932E-2
2.534975419E0,-6.817686558E-2,-1.571263745E-2,4.687159508E-2
2.537488596E0,-7.243791968E-2,-1.997369155E-2,4.687159508E-2
2.540001825E0,-7.563371211E-2,-2.316948213E-2,4.580633342E-2
2.542515054E0,-7.563371211E-2,-2.530000918E-2,4.474106804E-2
2.545028336E0,-7.456845045E-2,-2.849579975E-2,4.793685675E-2
2.547541565E0,-7.882949710E-2,-2.530000918E-2,4.687159508E-2
2.550054794E0,-7.882949710E-2,-2.636527270E-2,4.580633342E-2
2.552568075E0,-7.563371211E-2,-2.743053623E-2,4.474106804E-2
2.555081304E0,-7.669897377E-2,-2.956106327E-2,4.687159508E-2
2.557594534E0,-7.563371211E-2,-2.956106327E-2,3.941474855E-2
2.560107815E0,-7.243791968E-2,-2.956106327E-2,3.408843279E-2
2.562621044E0,-7.350318134E-2,-3.169158846E-2,3.621895984E-2
2.565134273E0,-7.350318134E-2,-2.956106327E-2,3.515369445E-2
2.567647554E0,-7.030738890E-2,-2.849579975E-2,3.302317113E-2
2.570160784E0,-6.817686558E-2,-2.636527270E-2,2.876211517E-2
2.572674013E0,-6.498107314E-2,-2.530000918E-2,2.663158812E-2
2.575187294E0,-6.072001904E-2,-2.210421860E-2,2.343579754E-2
2.577700523E0,-5.539370328E-2,-2.210421860E-2,1.917474344E-2
2.580213752E0,-5.006738752E-2,-2.423474565E-2,1.278316230E-2
2.582727034E0,-4.367580265E-2,-2.423474565E-2,1.065263525E-2
2.585240263E0,-4.154527932E-2,-2.316948213E-2,7.456844673E-3
2.587753492E0,-4.048001394E-2,-2.316948213E-2,4.261054099E-3
2.590266773E0,-3.408843279E-2,-2.103895508E-2,1.065263525E-3
2.592780002E0,-2.769685164E-2,-1.997369155E-2,-3.195790574E-3
2.595293232E0,-2.237053402E-2,-1.997369155E-2,-1.065263525E-3
2.597806513E0,-1.810947992E-2,-2.210421860E-2,-3.195790574E-3
2.600319742E0,-1.597895287E-2,-2.103895508E-2,-2.130527049E-3
2.602832971E0,-1.278316230E-2,-1.571263745E-2,-3.195790574E-3
2.605346252E0,-1.384842582E-2,-1.358211040E-2,-1.065263525E-3
2.607859482E0,-8.522108197E-3,-1.251684688E-2,-0.000000000E0
2.610372711E0,-5.326317623E-3,-9.321056306E-3,3.195790574E-3
2.612885992E0,-4.261054099E-3,-8.255792782E-3,5.326317623E-3
2.615399221E0,-5.326317623E-3,-3.994738217E-3,9.587371722E-3
2.617912450E0,-6.391581148E-3,-8.255792782E-3,9.587371722E-3
2.620425732E0,-7.456844673E-3,-9.321056306E-3,9.587371722E-3
2.622938961E0,-8.522108197E-3,-1.145158336E-2,9.587371722E-3
2.625452190E0,-1.384842582E-2,-1.145158336E-2,8.522108197E-3
2.627965471E0,-1.597895287E-2,-1.251684688E-2,9.587371722E-3
2.630478700E0,-2.024000697E-2,-1.038631983E-2,1.171789877E-2
2.632991929E0,-2.024000697E-2,-1.145158336E-2,7.456844673E-3
2.635505211E0,-2.663158812E-2,-1.038631983E-2,3.195790574E-3
2.638018440E0,-2.876211517E-2,-1.358211040E-2,1.065263525E-3
2.640531669E0,-3.089264221E-2,-1.571263745E-2,-1.065263525E-3
2.643044898E0,-3.515369445E-2,-1.677790098E-2,-2.130527049E-3
2.645558179E0,-3.515369445E-2,-1.464737393E-2,-6.391581148E-3
2.648071409E0,-3.728422523E-2,-1.358211040E-2,-9.587371722E-3
2.650584638E0,-3.728422523E-2,-1.358211040E-2,-1.065263525E-2
2.653097919E0,-3.515369445E-2,-1.145158336E-2,-1.278316230E-2
2.655611148E0,-3.621895984E-2,-9.321056306E-3,-1.384842582E-2
2.658124377E0,-3.408843279E-2,-7.190528791E-3,-1.917474344E-2
2.660637659E0,-3.195790574E-2,-7.190528791E-3,-1.384842582E-2
2.663150888E0,-2.876211517E-2,-5.060001742E-3,-1.278316230E-2
2.665664117E0,-2.769685164E-2,-7.989476435E-4,-1.384842582E-2
2.668177398E0,-2.237053402E-2,-3.994738217E-3,-1.597895287E-2
2.670690627E0,-2.130527049E-2,-7.190528791E-3,-1.597895287E-2
2.673203857E0,-1.810947992E-2,-3.994738217E-3,-1.171789877E-2
2.675717138E0,-1.278316230E-2,-3.994738217E-3,-8.522108197E-3
2.678230367E0,-1.065263525E-2,-8.255792782E-3,-9.587371722E-3
2.680743596E0,-8.522108197E-3,-7.190528791E-3,-7.456844673E-3
2.683256877E0,-5.326317623E-3,-5.060001742E-3,-6.391581148E-3
2.685770107E0,-3.195790574E-3,-1.038631983E-2,-7.456844673E-3
2.688283336E0,-1.065263525E-3,-9.321056306E-3,-8.522108197E-3
2.690796617E0,-4.261054099E-3,-1.251684688E-2,-7.456844673E-3
2.693309846E0,-1.065263525E-3,-1.571263745E-2,-8.522108197E-3
2.695823075E0,-3.195790574E-3,-1.677790098E-2,-7.456844673E-3
2.698336357E0,-8.522108197E-3,-1.997369155E-2,-5.326317623E-3
2.700849586E0,-8.522108197E-3,-2.210421860E-2,-6.391581148E-3
2.703362815E0,-1.065263525E-2,-2.316948213E-2,-3.195790574E-3
2.705876096E0,-1.704421639E-2,-2.849579975E-2,-5.326317623E-3
2.708389325E0,-1.917474344E-2,-3.595264256E-2,-3.195790574E-3
2.710902554E0,-2.343579754E-2,-3.275685385E-2,-3.195790574E-3
2.713415836E0,-2.876211517E-2,-3.595264256E-2,-2.130527049E-3
2.715929065E0,-3.195790574E-2,-3.808316961E-2,-1.065263525E-3
2.718442294E0,-3.621895984E-2,-3.701790795E-2,-1.065263525E-3
2.720955575E0,-4.048001394E-2,-3.595264256E-2,-1.065263525E-3
2.723468804E0,-4.793685675E-2,-3.382211551E-2,-0.000000000E0
2.725982034E0,-5.006738752E-2,-3.488738090E-2,-3.195790574E-3
2.728495315E0,-5.219791085E-2,-2.849579975E-2,-1.065263525E-3
2.731008544E0,-5.432844162E-2,-2.636527270E-2,-2.130527049E-3
2.733521773E0,-5.432844162E-2,-2.636527270E-2,-5.326317623E-3
2.736035054E0,-5.645896494E-2,-2.530000918E-2,-3.195790574E-3
2.738548284E0,-5.432844162E-2,-2.103895508E-2,-3.195790574E-3
2.741061513E0,-4.793685675E-2,-1.997369155E-2,-6.391581148E-3
2.743574794E0,-4.261054099E-2,-1.784316450E-2,-4.261054099E-3
2.746088023E0,-4.048001394E-2,-1.038631983E-2,-0.000000000E0
2.748601252E0,-3.515369445E-2,-1.038631983E-2,-1.065263525E-3
2.751114534E0,-3.089264221E-2,-1.038631983E-2,-5.326317623E-3
2.753627763E0,-2.343579754E-2,-9.321056306E-3,-4.261054099E-3
2.756140992E0,-2.024000697E-2,-1.038631983E-2,-1.065263525E-3
2.758654273E0,-1.384842582E-2,-1.145158336E-2,-1.065263525E-3
2.761167502E0,-6.391581148E-3,-1.038631983E-2,-3.195790574E-3
2.763680732E0,-1.065263525E-3,-8.255792782E-3,2.130527049E-3
2.766194013E0,6.391581148E-3,-3.994738217E-3,-1.065263525E-3
2.768707242E0,8.522108197E-3,-5.060001742E-3,-1.065263525E-3
2.771220471E0,1.278316230E-2,-8.255792782E-3,1.065263525E-3
2.773733700E0,1.278316230E-2,-7.190528791E-3,-0.000000000E0
2.776246982E0,1.597895287E-2,-2.929474693E-3,-3.195790574E-3
2.778760211E0,1.491368935E-2,-1.864211168E-3,-4.261054099E-3
2.781273440E0,1.491368935E-2,-1.864211168E-3,-5.326317623E-3
2.783786721E0,1.491368935E-2,-3.994738217E-3,-8.522108197E-3
2.786299950E0,1.278316230E-2,-1.864211168E-3,-9.587371722E-3
2.788813179E0,1.491368935E-2,2.663158812E-4,-1.384842582E-2
2.791326461E0,1.065263525E-2,3.462106455E-3,-1.597895287E-2
2.793839690E0,7.456844673E-3,3.462106455E-3,-1.810947992E-2
2.796352919E0,6.391581148E-3,3.462106455E-3,-2.024000697E-2
2.798866200E0,8.522108197E-3,6.657897029E-3,-2.130527049E-2
2.801379429E0,5.326317623E-3,9.853687137E-3,-1.917474344E-2
2.803892659E0,-1.065263525E-3,6.657897029E-3,-1.917474344E-2
2.806405940E0,-3.195790574E-3,7.723160554E-3,-1.917474344E-2
2.808919169E0,-6.391581148E-3,1.091895066E-2,-1.704421639E-2
2.811432398E0,-8.522108197E-3,1.198421419E-2,-1.384842582E-2
2.813945679E0,-1.384842582E-2,8.788423613E-3,-1.278316230E-2
2.816458909E0,-1.597895287E-2,9.853687137E-3,-1.065263525E-2
2.818972138E0,-1.491368935E-2,1.198421419E-2,-7.456844673E-3
2.821485419E0,-1.917474344E-2,9.853687137E-3,-7.456844673E-3
2.823998648E0,-2.130527049E-2,8.788423613E-3,-5.326317623E-3
2.826511877E0,-1.917474344E-2,4.527369980E-3,-6.391581148E-3
2.829025159E0,-1.917474344E-2,1.331579406E-3,-8.522108197E-3
2.831538388E0,-1.917474344E-2,-7.989476435E-4,-7.456844673E-3
2.834051617E0,-2.024000697E-2,-2.929474693E-3,-6.391581148E-3
2.836564898E0,-1.491368935E-2,-2.929474693E-3,-7.456844673E-3
2.839078127E0,-1.491368935E-2,-5.060001742E-3,-7.456844673E-3
2.841591357E0,-1.384842582E-2,-6.125265267E-3,-7.456844673E-3
2.844104638E0,-7.456844673E-3,-6.125265267E-3,-9.587371722E-3
2.846617867E0,-5.326317623E-3,-6.125265267E-3,-1.065263525E-2
2.849131096E0,-2.130527049E-3,-2.929474693E-3,-9.587371722E-3
2.851644377E0,2.130527049E-3,-5.060001742E-3,-1.171789877E-2
2.854157607E0,5.326317623E-3,-6.125265267E-3,-1.278316230E-2
2.856670836E0,8.522108197E-3,-7.989476435E-4,-1.491368935E-2
2.859184117E0,1.065263525E-2,-5.060001742E-3,-1.491368935E-2
2.861697346E0,1.491368935E-2,3.462106455E-3,-1.384842582E-2
2.864210575E0,2.024000697E-2,3.462106455E-3,-1.597895287E-2
2.866723857E0,2.237053402E-2,4.527369980E-3,-1.704421639E-2
2.869237086E0,2.450106107E-2,8.788423613E-3,-1.491368935E-2
2.871750315E0,2.556632459E-2,7.723160554E-3,-1.704421639E-2
2.874263596E0,2.982737869E-2,7.723160554E-3,-1.597895287E-2
2.876776825E0,3.408843279E-2,1.304947771E-2,-1.384842582E-2
2.879290054E0,3.408843279E-2,1.411474124E-2,-1.065263525E-2
2.881803336E0,3.515369445E-2,1.304947771E-2,-1.278316230E-2
2.884316565E0,3.728422523E-2,1.304947771E-2,-1.384842582E-2
2.886829794E0,3.621895984E-2,1.411474124E-2,-1.065263525E-2
2.889343075E0,3.728422523E-2,1.198421419E-2,-7.456844673E-3
2.891856304E0,3.408843279E-2,1.198421419E-2,-6.391581148E-3
2.894369534E0,3.408843279E-2,8.788423613E-3,-4.261054099E-3
2.896882815E0,2.876211517E-2,5.592633504E-3,-4.261054099E-3
2.899396044E0,2.343579754E-2,5.592633504E-3,-5.326317623E-3
2.901909273E0,1.810947992E-2,3.462106455E-3,-4.261054099E-3
2.904422554E0,1.491368935E-2,4.527369980E-3,-4.261054099E-3
2.906935784E0,8.522108197E-3,4.527369980E-3,-4.261054099E-3
2.909449013E0,2.130527049E-3,-1.864211168E-3,-1.065263525E-3
2.911962242E0,-1.065263525E-3,-1.864211168E-3,-1.065263525E-3
2.914475523E0,-6.391581148E-3,-2.929474693E-3,-3.195790574E-3
2.916988752E0,-9.587371722E-3,2.663158812E-4,-3.195790574E-3
2.919501982E0,-1.171789877E-2,2.663158812E-4,-1.065263525E-3
2.922015263E0,-1.704421639E-2,-1.038631983E-2,-0.000000000E0
2.924528492E0,-1.917474344E-2,-1.038631983E-2,-2.130527049E-3
2.927041721E0,-1.917474344E-2,-5.060001742E-3,1.065263525E-3
2.929555002E0,-1.597895287E-2,-1.038631983E-2,2.130527049E-3
2.932068232E0,-1.810947992E-2,-1.251684688E-2,2.130527049E-3
2.934581461E0,-1.704421639E-2,-1.145158336E-2,1.065263525E-3
2.937094742E0,-1.384842582E-2,-1.358211040E-2,1.065263525E-3
2.939607971E0,-1.065263525E-2,-1.571263745E-2,1.065263525E-3
2.942121200E0,-7.456844673E-3,-1.358211040E-2,3.195790574E-3
2.944634482E0,-4.261054099E-3,-1.251684688E-2,1.065263525E-3
2.947147711E0,-1.065263525E-3,-1.464737393E-2,-2.130527049E-3
2.949660940E0,1.065263525E-3,-1.464737393E-2,3.195790574E-3
2.952174221E0,6.391581148E-3,-1.358211040E-2,1.065263525E-3
2.954687450E0,6.391581148E-3,-9.321056306E-3,-0.000000000E0
2.957200679E0,6.391581148E-3,-3.994738217E-3,-1.065263525E-3
2.959713961E0,8.522108197E-3,-1.864211168E-3,-2.130527049E-3
2.962227190E0,9.587371722E-3,2.663158812E-4,-3.195790574E-3
2.964740419E0,1.065263525E-2,5.592633504E-3,-1.065263525E-3
2.967253700E0,1.065263525E-2,7.723160554E-3,-4.261054099E-3
2.969766929E0,1.171789877E-2,9.853687137E-3,-6.391581148E-3
2.972280159E0,1.278316230E-2,8.788423613E-3,-6.391581148E-3
2.974793440E0,1.171789877E-2,9.853687137E-3,-3.195790574E-3
2.977306669E0,1.171789877E-2,9.853687137E-3,-5.326317623E-3
2.979819898E0,1.065263525E-2,8.788423613E-3,-5.326317623E-3
2.982333179E0,1.171789877E-2,9.853687137E-3,-3.195790574E-3
2.984846409E0,9.587371722E-3,5.592633504E-3,-4.261054099E-3
2.987359638E0,5.326317623E-3,3.462106455E-3,-5.326317623E-3
2.989872919E0,3.195790574E-3,1.331579406E-3,-3.195790574E-3
2.992386148E0,-0.000000000E0,4.527369980E-3,-1.065263525E-3
2.994899377E0,-2.130527049E-3,2.396842930E-3,-6.391581148E-3
2.997412659E0,-1.065263525E-3,-1.864211168E-3,-4.261054099E-3
2.999925888E0,-0.000000000E0,-3.994738217E-3,-6.391581148E-3
3.002439117E0,-4.261054099E-3,-5.060001742E-3,-8.522108197E-3
3.004952398E0,-4.261054099E-3,-7.190528791E-3,-8.522108197E-3
3.007465627E0,-3.195790574E-3,-7.190528791E-3,-8.522108197E-3
3.009978857E0,-1.065263525E-3,-9.321056306E-3,-6.391581148E-3
3.012492138E0,-5.326317623E-3,-1.251684688E-2,-9.587371722E-3
3.015005367E0,-2.130527049E-3,-1.358211040E-2,-1.278316230E-2
3.017518596E0,-4.261054099E-3,-1.038631983E-2,-1.065263525E-2
3.020031877E0,-3.195790574E-3,-8.255792782E-3,-9.587371722E-3
3.022545107E0,1.065263525E-3,-1.145158336E-2,-1.171789877E-2
3.025058336E0,1.065263525E-3,-1.251684688E-2,-1.171789877E-2
3.027571617E0,-0.000000000E0,-1.358211040E-2,-8.522108197E-3
3.030084846E0,-2.130527049E-3,-1.145158336E-2,-8.522108197E-3
3.032598075E0,-1.065263525E-3,-1.251684688E-2,-1.065263525E-2
3.035111357E0,4.261054099E-3,-1.358211040E-2,-6.391581148E-3
3.037624586E0,4.261054099E-3,-1.038631983E-2,-4.261054099E-3
3.040137815E0,3.195790574E-3,-8.255792782E-3,-2.130527049E-3
3.042651096E0,3.195790574E-3,-6.125265267E-3,-1.065263525E-3
3.045164325E0,3.195790574E-3,-5.060001742E-3,-5.326317623E-3
3.047677554E0,3.195790574E-3,1.331579406E-3,-3.195790574E-3
3.050190836E0,5.326317623E-3,4.527369980E-3,-1.065263525E-3
3.052704065E0,2.130527049E-3,1.198421419E-2,-2.130527049E-3
3.055217346E0,1.065263525E-3,1.624526829E-2,-0.000000000E0
3.057730575E0,-1.065263525E-3,2.050632238E-2,-3.195790574E-3
3.060243804E0,-2.130527049E-3,2.050632238E-2,-2.130527049E-3
3.062757086E0,-3.195790574E-3,2.476737648E-2,-1.065263525E-3
3.065270315E0,-3.195790574E-3,2.583264001E-2,-3.195790574E-3
3.067783596E0,-2.130527049E-3,2.689790353E-2,-4.261054099E-3
3.070296825E0,3.195790574E-3,2.796316706E-2,-9.587371722E-3
3.072810107E0,2.130527049E-3,2.689790353E-2,-8.522108197E-3
3.075323336E0,1.065263525E-3,2.370211296E-2,-1.171789877E-2
3.077836565E0,-0.000000000E0,2.370211296E-2,-1.384842582E-2
3.080349846E0,4.261054099E-3,2.157158591E-2,-1.171789877E-2
3.082863075E0,4.261054099E-3,1.624526829E-2,-1.491368935E-2
3.085376357E0,7.456844673E-3,1.731053181E-2,-1.384842582E-2
3.087889586E0,1.065263525E-2,1.411474124E-2,-1.597895287E-2
3.090402815E0,1.171789877E-2,9.853687137E-3,-1.597895287E-2
3.092916096E0,1.171789877E-2,1.331579406E-3,-1.704421639E-2
3.095429325E0,1.491368935E-2,1.331579406E-3,-1.810947992E-2
3.097942607E0,1.917474344E-2,2.663158812E-4,-1.917474344E-2
3.100455836E0,1.597895287E-2,-7.989476435E-4,-2.130527049E-2
3.102969065E0,1.491368935E-2,3.462106455E-3,-2.130527049E-2
3.105482346E0,1.597895287E-2,3.462106455E-3,-2.237053402E-2
3.107995575E0,1.491368935E-2,4.527369980E-3,-2.130527049E-2
3.110508857E0,1.278316230E-2,5.592633504E-3,-1.917474344E-2
3.113022086E0,1.491368935E-2,7.723160554E-3,-1.810947992E-2
3.115535367E0,1.278316230E-2,8.788423613E-3,-1.810947992E-2
3.118048596E0,1.597895287E-2,9.853687137E-3,-1.810947992E-2
3.120561825E0,1.384842582E-2,1.198421419E-2,-1.704421639E-2
3.123075107E0,1.491368935E-2,9.853687137E-3,-1.278316230E-2
3.125588336E0,1.065263525E-2,1.091895066E-2,-9.587371722E-3
3.128101617E0,8.522108197E-3,7.723160554E-3,-5.326317623E-3
3.130614846E0,3.195790574E-3,6.657897029E-3,-3.195790574E-3
3.133128075E0,1.065263525E-3,1.331579406E-3,-0.000000000E0
3.135641357E0,-2.130527049E-3,2.396842930E-3,-1.065263525E-3
3.138154586E0,-5.326317623E-3,5.592633504E-3,-0.000000000E0
3.140667867E0,-7.456844673E-3,2.396842930E-3,3.195790574E-3
3.143181096E0,-7.456844673E-3,1.331579406E-3,5.326317623E-3
3.145694325E0,-1.384842582E-2,2.396842930E-3,3.195790574E-3
3.148207607E0,-1.597895287E-2,2.663158812E-4,5.326317623E-3
3.150720836E0,-1.704421639E-2,-7.989476435E-4,5.326317623E-3
3.153234117E0,-1.810947992E-2,-3.994738217E-3,1.065263525E-3
3.155747346E0,-1.917474344E-2,-3.994738217E-3,-0.000000000E0
3.158260627E0,-1.597895287E-2,-7.190528791E-3,1.065263525E-3
3.160773857E0,-1.171789877E-2,-6.125265267E-3,3.195790574E-3
3.163287086E0,-1.171789877E-2,-3.994738217E-3,2.130527049E-3
3.165800367E0,-1.065263525E-2,-6.125265267E-3,1.065263525E-3
3.168313596E0,-6.391581148E-3,-6.125265267E-3,1.065263525E-3
3.170826877E0,-1.065263525E-3,-7.989476435E-4,2.130527049E-3
3.173340107E0,2.130527049E-3,-6.125265267E-3,3.195790574E-3
3.175853336E0,2.130527049E-3,-6.125265267E-3,4.261054099E-3
3.178366617E0,4.261054099E-3,-5.060001742E-3,4.261054099E-3
3.180879846E0,6.391581148E-3,-7.989476435E-4,6.391581148E-3
3.183393127E0,9.587371722E-3,3.462106455E-3,8.522108197E-3
3.185906357E0,7.456844673E-3,3.462106455E-3,4.261054099E-3
3.188419638E0,7.456844673E-3,6.657897029E-3,7.456844673E-3
3.190932867E0,1.065263525E-3,9.853687137E-3,1.171789877E-2
3.193446096E0,-1.065263525E-3,9.853687137E-3,1.597895287E-2
3.195959377E0,-2.130527049E-3,1.091895066E-2,1.917474344E-2
3.198472607E0,-8.522108197E-3,1.198421419E-2,1.917474344E-2
3.200985888E0,-1.065263525E-2,1.304947771E-2,2.130527049E-2
3.203499117E0,-1.278316230E-2,8.788423613E-3,2.130527049E-2
3.206012346E0,-1.704421639E-2,1.198421419E-2,2.130527049E-2
3.208525627E0,-1.917474344E-2,1.198421419E-2,2.237053402E-2
3.211038857E0,-2.450106107E-2,8.788423613E-3,2.343579754E-2
3.213552138E0,-2.556632459E-2,4.527369980E-3,2.343579754E-2
3.216065367E0,-2.876211517E-2,5.592633504E-3,2.450106107E-2
3.218578596E0,-2.982737869E-2,2.396842930E-3,2.024000697E-2
3.221091877E0,-3.089264221E-2,-3.994738217E-3,1.917474344E-2
3.223605107E0,-2.982737869E-2,-2.929474693E-3,1.704421639E-2
3.226118388E0,-3.302317113E-2,-2.929474693E-3,1.704421639E-2
3.228631617E0,-3.515369445E-2,-7.989476435E-4,1.704421639E-2
3.231144898E0,-3.195790574E-2,-7.989476435E-4,1.278316230E-2
3.233658127E0,-2.876211517E-2,-3.994738217E-3,9.587371722E-3
3.236171357E0,-2.663158812E-2,-2.929474693E-3,9.587371722E-3
3.238684638E0,-2.663158812E-2,-2.929474693E-3,7.456844673E-3
3.241197867E0,-2.663158812E-2,-1.864211168E-3,4.261054099E-3
3.243711148E0,-2.343579754E-2,-2.929474693E-3,5.326317623E-3
3.246224377E0,-1.810947992E-2,4.527369980E-3,9.587371722E-3
3.248737607E0,-1.278316230E-2,4.527369980E-3,7.456844673E-3
3.251250888E0,-4.261054099E-3,6.657897029E-3,8.522108197E-3
3.253764117E0,-3.195790574E-3,1.091895066E-2,7.456844673E-3
3.256277398E0,1.065263525E-3,1.731053181E-2,8.522108197E-3
3.258790627E0,5.326317623E-3,1.731053181E-2,1.278316230E-2
3.261303857E0,1.065263525E-2,1.944105886E-2,1.171789877E-2
3.263817138E0,1.278316230E-2,2.263684943E-2,1.384842582E-2
3.266330367E0,1.278316230E-2,2.476737648E-2,1.597895287E-2
3.268843648E0,1.171789877E-2,2.583264001E-2,1.491368935E-2
3.271356877E0,1.704421639E-2,2.796316706E-2,1.704421639E-2
3.273870159E0,1.917474344E-2,2.902843058E-2,1.917474344E-2
3.276383388E0,2.130527049E-2,3.222422302E-2,1.810947992E-2
3.278896617E0,1.704421639E-2,3.435475007E-2,1.597895287E-2
3.281409898E0,1.704421639E-2,3.222422302E-2,1.384842582E-2
3.283923127E0,2.130527049E-2,3.328948468E-2,1.065263525E-2
3.286436409E0,2.130527049E-2,3.222422302E-2,1.597895287E-2
3.288949638E0,1.597895287E-2,2.796316706E-2,1.491368935E-2
3.291462867E0,1.704421639E-2,2.476737648E-2,1.384842582E-2
3.293976148E0,1.704421639E-2,2.476737648E-2,1.384842582E-2
3.296489377E0,1.704421639E-2,2.583264001E-2,1.278316230E-2
3.299002659E0,1.491368935E-2,2.370211296E-2,1.171789877E-2
3.301515888E0,1.278316230E-2,2.050632238E-2,1.171789877E-2
3.304029117E0,1.171789877E-2,1.518000476E-2,9.587371722E-3
3.306542398E0,1.171789877E-2,1.518000476E-2,1.278316230E-2
3.309055627E0,1.171789877E-2,8.788423613E-3,9.587371722E-3
3.311568909E0,6.391581148E-3,1.091895066E-2,1.065263525E-2
3.314082138E0,3.195790574E-3,6.657897029E-3,1.384842582E-2
3.316595419E0,1.065263525E-3,5.592633504E-3,1.171789877E-2
3.319108648E0,-0.000000000E0,3.462106455E-3,1.384842582E-2
3.321621877E0,-4.261054099E-3,2.396842930E-3,1.384842582E-2
3.324135159E0,-7.456844673E-3,-3.994738217E-3,1.278316230E-2
3.326648388E0,-7.456844673E-3,-3.994738217E-3,1.810947992E-2
3.329161669E0,-1.065263525E-2,-3.994738217E-3,1.810947992E-2
3.331674898E0,-1.171789877E-2,-2.929474693E-3,1.810947992E-2
3.334188127E0,-1.597895287E-2,-5.060001742E-3,1.597895287E-2
3.336701409E0,-1.597895287E-2,-5.060001742E-3,1.597895287E-2
3.339214638E0,-1.597895287E-2,-6.125265267E-3,1.704421639E-2
3.341727919E0,-2.130527049E-2,-6.125265267E-3,1.810947992E-2
3.344241148E0,-2.450106107E-2,-7.190528791E-3,2.130527049E-2
3.346754377E0,-2.556632459E-2,-7.190528791E-3,2.237053402E-2
3.349267659E0,-2.450106107E-2,-3.994738217E-3,2.237053402E-2
3.351780888E0,-2.556632459E-2,-7.989476435E-4,2.769685164E-2
3.354294169E0,-2.237053402E-2,6.657897029E-3,2.663158812E-2
3.356807398E0,-2.237053402E-2,9.853687137E-3,2.130527049E-2
3.359320679E0,-2.237053402E-2,1.198421419E-2,2.024000697E-2
3.361833909E0,-2.130527049E-2,1.837579533E-2,2.343579754E-2
3.364347138E0,-1.704421639E-2,2.689790353E-2,2.237053402E-2
3.366860419E0,-1.384842582E-2,2.796316706E-2,2.343579754E-2
3.369373648E0,-7.456844673E-3,2.796316706E-2,2.237053402E-2
3.371886929E0,-4.261054099E-3,3.648527712E-2,2.556632459E-2
3.374400159E0,-0.000000000E0,3.861580417E-2,2.343579754E-2
3.376913388E0,1.065263525E-3,3.968106583E-2,2.024000697E-2
3.379426669E0,6.391581148E-3,3.968106583E-2,2.556632459E-2
3.381939898E0,1.065263525E-2,3.968106583E-2,2.982737869E-2
3.384453179E0,1.171789877E-2,3.755053878E-2,2.769685164E-2
3.386966409E0,1.491368935E-2,3.861580417E-2,2.769685164E-2
3.389479638E0,1.597895287E-2,3.328948468E-2,2.343579754E-2
3.391992919E0,1.597895287E-2,3.222422302E-2,2.450106107E-2
3.394506148E0,1.278316230E-2,2.689790353E-2,2.663158812E-2
3.397019429E0,1.491368935E-2,2.476737648E-2,2.237053402E-2
3.399532659E0,1.384842582E-2,1.944105886E-2,2.024000697E-2
3.402045940E0,9.587371722E-3,1.518000476E-2,2.024000697E-2
3.404559169E0,9.587371722E-3,1.518000476E-2,1.384842582E-2
3.407072398E0,6.391581148E-3,7.723160554E-3,1.384842582E-2
3.409585679E0,4.261054099E-3,7.723160554E-3,1.491368935E-2
3.412098909E0,-2.130527049E-3,7.723160554E-3,1.278316230E-2
3.414612190E0,-5.326317623E-3,6.657897029E-3,1.065263525E-2
3.417125419E0,-7.456844673E-3,6.657897029E-3,1.278316230E-2
3.419638648E0,-9.587371722E-3,3.462106455E-3,9.587371722E-3
3.422151929E0,-9.587371722E-3,-1.864211168E-3,1.065263525E-2
3.424665159E0,-1.278316230E-2,1.331579406E-3,8.522108197E-3
3.427178440E0,-1.597895287E-2,3.462106455E-3,9.587371722E-3
3.429691669E0,-1.065263525E-2,2.396842930E-3,9.587371722E-3
3.432204898E0,-1.278316230E-2,2.663158812E-4,9.587371722E-3
3.434718179E0,-1.491368935E-2,2.396842930E-3,9.587371722E-3
3.437231409E0,-1.491368935E-2,2.396842930E-3,8.522108197E-3
3.439744690E0,-1.704421639E-2,2.396842930E-3,8.522108197E-3
3.442257919E0,-8.522108197E-3,3.462106455E-3,1.171789877E-2
3.444771200E0,-1.278316230E-2,6.657897029E-3,1.384842582E-2
3.447284429E0,-1.171789877E-2,6.657897029E-3,1.384842582E-2
3.449797659E0,-8.522108197E-3,1.198421419E-2,1.171789877E-2
3.452310940E0,-7.456844673E-3,1.518000476E-2,1.171789877E-2
3.454824169E0,-3.195790574E-3,1.518000476E-2,1.065263525E-2
3.457337450E0,-1.065263525E-3,1.731053181E-2,8.522108197E-3
3.459850679E0,-2.130527049E-3,2.370211296E-2,9.587371722E-3
3.462363909E0,2.130527049E-3,2.263684943E-2,9.587371722E-3
3.464877190E0,6.391581148E-3,2.476737648E-2,1.065263525E-2
3.467390419E0,6.391581148E-3,2.476737648E-2,1.171789877E-2
3.469903700E0,6.391581148E-3,2.583264001E-2,1.171789877E-2
3.472416929E0,9.587371722E-3,2.583264001E-2,1.065263525E-2
3.474930159E0,6.391581148E-3,3.009369411E-2,1.065263525E-2
3.477443440E0,5.326317623E-3,3.328948468E-2,8.522108197E-3
3.479956669E0,5.326317623E-3,3.009369411E-2,6.391581148E-3
3.482469950E0,2.130527049E-3,2.902843058E-2,6.391581148E-3
3.484983179E0,-4.261054099E-3,2.902843058E-2,8.522108197E-3
3.487496461E0,-2.130527049E-3,2.796316706E-2,7.456844673E-3
3.490009690E0,-2.130527049E-3,2.902843058E-2,6.391581148E-3
3.492522919E0,-5.326317623E-3,2.583264001E-2,4.261054099E-3
3.495036200E0,-4.261054099E-3,2.263684943E-2,5.326317623E-3
3.497549429E0,-7.456844673E-3,2.263684943E-2,6.391581148E-3
3.500062711E0,-1.384842582E-2,2.263684943E-2,4.261054099E-3
3.502575940E0,-1.810947992E-2,2.050632238E-2,6.391581148E-3
3.505089169E0,-1.917474344E-2,1.944105886E-2,9.587371722E-3
3.507602450E0,-2.237053402E-2,1.837579533E-2,9.587371722E-3
3.510115679E0,-2.663158812E-2,2.050632238E-2,1.065263525E-2
3.512628961E0,-2.556632459E-2,1.944105886E-2,1.384842582E-2
3.515142190E0,-2.556632459E-2,1.731053181E-2,1.597895287E-2
3.517655419E0,-2.876211517E-2,1.624526829E-2,1.704421639E-2
3.520168700E0,-2.769685164E-2,1.411474124E-2,1.810947992E-2
3.522681929E0,-3.089264221E-2,1.304947771E-2,1.810947992E-2
3.525195211E0,-3.302317113E-2,1.198421419E-2,2.130527049E-2
3.527708440E0,-2.982737869E-2,1.091895066E-2,2.343579754E-2
3.530221721E0,-2.769685164E-2,9.853687137E-3,2.343579754E-2
3.532734950E0,-2.769685164E-2,1.091895066E-2,2.237053402E-2
3.535248179E0,-2.663158812E-2,9.853687137E-3,2.130527049E-2
3.537761409E0,-2.769685164E-2,1.198421419E-2,1.917474344E-2
3.540274534E0,-2.343579754E-2,1.091895066E-2,1.917474344E-2
3.542787711E0,-2.237053402E-2,9.853687137E-3,1.810947992E-2
3.545300888E0,-2.556632459E-2,1.091895066E-2,1.384842582E-2
3.547814013E0,-2.130527049E-2,1.411474124E-2,1.491368935E-2
3.550327190E0,-1.704421639E-2,1.518000476E-2,1.597895287E-2
3.552840367E0,-1.810947992E-2,1.411474124E-2,1.491368935E-2
3.555353544E0,-1.704421639E-2,1.518000476E-2,1.384842582E-2
3.557866669E0,-1.278316230E-2,1.518000476E-2,1.171789877E-2
3.560379846E0,-7.456844673E-3,1.518000476E-2,1.384842582E-2
3.562893023E0,-9.587371722E-3,1.624526829E-2,1.278316230E-2
3.565406200E0,-7.456844673E-3,1.944105886E-2,1.491368935E-2
3.567919325E0,-6.391581148E-3,1.624526829E-2,1.491368935E-2
3.570432502E0,-6.391581148E-3,1.624526829E-2,1.597895287E-2
3.572945679E0,-5.326317623E-3,2.050632238E-2,1.384842582E-2
3.575458857E0,-3.195790574E-3,1.731053181E-2,1.384842582E-2
3.577971982E0,-5.326317623E-3,1.731053181E-2,1.278316230E-2
3.580485159E0,-3.195790574E-3,1.518000476E-2,1.065263525E-2
3.582998336E0,-2.130527049E-3,1.624526829E-2,8.522108197E-3
3.585511513E0,-1.065263525E-3,1.411474124E-2,1.171789877E-2
3.588024638E0,-3.195790574E-3,9.853687137E-3,8.522108197E-3
3.590537815E0,-3.195790574E-3,5.592633504E-3,7.456844673E-3
3.593050992E0,-2.130527049E-3,5.592633504E-3,5.326317623E-3
3.595564169E0,-1.065263525E-3,3.462106455E-3,6.391581148E-3
3.598077294E0,-1.065263525E-3,2.396842930E-3,6.391581148E-3
3.600590471E0,-0.000000000E0,2.663158812E-4,4.261054099E-3
3.603103648E0,-0.000000000E0,-1.864211168E-3,-1.065263525E-3
3.605616825E0,-3.195790574E-3,-5.060001742E-3,1.065263525E-3
3.608129950E0,-0.000000000E0,-2.929474693E-3,-2.130527049E-3
3.610643127E0,3.195790574E-3,-1.864211168E-3,-4.261054099E-3
3.613156304E0,5.326317623E-3,-2.929474693E-3,-5.326317623E-3
3.615669482E0,4.261054099E-3,-2.929474693E-3,-5.326317623E-3
3.618182607E0,8.522108197E-3,-3.994738217E-3,-5.326317623E-3
3.620695784E0,9.587371722E-3,-3.994738217E-3,-8.522108197E-3
3.623208961E0,1.171789877E-2,-3.994738217E-3,-6.391581148E-3
3.625722086E0,1.491368935E-2,-7.989476435E-4,-9.587371722E-3
3.628235263E0,1.597895287E-2,-1.864211168E-3,-7.456844673E-3
3.630748440E0,1.704421639E-2,-3.994738217E-3,-8.522108197E-3
3.633261617E0,1.810947992E-2,-5.060001742E-3,-7.456844673E-3
3.635774742E0,1.917474344E-2,-5.060001742E-3,-6.391581148E-3
3.638287919E0,1.917474344E-2,-6.125265267E-3,-3.195790574E-3
3.640801096E0,2.024000697E-2,-7.190528791E-3,-4.261054099E-3
3.643314273E0,1.704421639E-2,-3.994738217E-3,-0.000000000E0
3.645827398E0,1.278316230E-2,-5.060001742E-3,-0.000000000E0
3.648340575E0,1.065263525E-2,-7.190528791E-3,4.261054099E-3
3.650853752E0,9.587371722E-3,-8.255792782E-3,1.065263525E-3
3.653366929E0,5.326317623E-3,-1.038631983E-2,4.261054099E-3
3.655880054E0,-0.000000000E0,-6.125265267E-3,7.456844673E-3
3.658393232E0,-4.261054099E-3,-2.929474693E-3,9.587371722E-3
3.660906409E0,-4.261054099E-3,-1.864211168E-3,1.065263525E-2
3.663419586E0,-5.326317623E-3,1.331579406E-3,1.384842582E-2
3.665932711E0,-1.065263525E-2,2.396842930E-3,1.491368935E-2
3.668445888E0,-1.278316230E-2,4.527369980E-3,1.704421639E-2
3.670959065E0,-1.278316230E-2,5.592633504E-3,1.597895287E-2
3.673472242E0,-1.597895287E-2,5.592633504E-3,1.384842582E-2
3.675985367E0,-1.597895287E-2,5.592633504E-3,1.704421639E-2
3.678498544E0,-1.704421639E-2,4.527369980E-3,1.917474344E-2
3.681011721E0,-1.384842582E-2,6.657897029E-3,1.917474344E-2
3.683524898E0,-1.065263525E-2,2.396842930E-3,1.704421639E-2
3.686038023E0,-1.171789877E-2,-1.864211168E-3,1.384842582E-2
3.688551200E0,-1.065263525E-2,-6.125265267E-3,9.587371722E-3
3.691064377E0,-1.065263525E-2,-7.190528791E-3,9.587371722E-3
3.693577502E0,-9.587371722E-3,-9.321056306E-3,7.456844673E-3
3.696090679E0,-8.522108197E-3,-9.321056306E-3,5.326317623E-3
3.698603857E0,-5.326317623E-3,-1.251684688E-2,1.065263525E-3
3.701117034E0,-3.195790574E-3,-1.677790098E-2,1.065263525E-3
3.703630159E0,-2.130527049E-3,-1.677790098E-2,-0.000000000E0
3.706143336E0,-4.261054099E-3,-1.677790098E-2,-4.261054099E-3
3.708656513E0,-4.261054099E-3,-1.677790098E-2,-3.195790574E-3
3.711169690E0,-2.130527049E-3,-1.464737393E-2,-5.326317623E-3
3.713682815E0,-4.261054099E-3,-1.251684688E-2,-5.326317623E-3
3.716195992E0,-5.326317623E-3,-1.038631983E-2,-1.065263525E-3
3.718709169E0,-3.195790574E-3,-7.190528791E-3,-1.065263525E-3
3.721222346E0,-5.326317623E-3,-6.125265267E-3,-0.000000000E0
3.723735471E0,-6.391581148E-3,-5.060001742E-3,2.130527049E-3
3.726248648E0,-6.391581148E-3,-5.060001742E-3,1.065263525E-3
3.728761825E0,-8.522108197E-3,-3.994738217E-3,5.326317623E-3
3.731275002E0,-8.522108197E-3,-2.929474693E-3,6.391581148E-3
3.733788127E0,-7.456844673E-3,-7.989476435E-4,7.456844673E-3
3.736301304E0,-1.065263525E-2,-7.989476435E-4,8.522108197E-3
3.738814482E0,-1.171789877E-2,-5.060001742E-3,7.456844673E-3
3.741327659E0,-1.171789877E-2,-3.994738217E-3,6.391581148E-3
3.743840784E0,-1.278316230E-2,2.663158812E-4,8.522108197E-3
3.746353961E0,-1.065263525E-2,2.663158812E-4,4.261054099E-3
3.748867138E0,-9.587371722E-3,4.527369980E-3,3.195790574E-3
3.751380315E0,-7.456844673E-3,4.527369980E-3,7.456844673E-3
3.753893440E0,-8.522108197E-3,4.527369980E-3,7.456844673E-3
3.756406617E0,-8.522108197E-3,2.396842930E-3,3.195790574E-3
3.758919794E0,-8.522108197E-3,2.396842930E-3,2.130527049E-3
3.761432971E0,-7.456844673E-3,4.527369980E-3,1.065263525E-3
3.763946096E0,-3.195790574E-3,4.527369980E-3,-1.065263525E-3
3.766459273E0,-1.065263525E-3,2.663158812E-4,-4.261054099E-3
3.768972450E0,-5.326317623E-3,1.331579406E-3,-4.261054099E-3
3.771485575E0,-3.195790574E-3,2.396842930E-3,-4.261054099E-3
3.773998752E0,-1.065263525E-3,4.527369980E-3,-7.456844673E-3
3.776511929E0,-1.065263525E-3,3.462106455E-3,-8.522108197E-3
3.779025107E0,1.065263525E-3,2.396842930E-3,-7.456844673E-3
3.781538232E0,3.195790574E-3,5.592633504E-3,-9.587371722E-3
3.784051409E0,8.522108197E-3,6.657897029E-3,-8.522108197E-3
3.786564586E0,9.587371722E-3,5.592633504E-3,-5.326317623E-3
3.789077763E0,9.587371722E-3,6.657897029E-3,-4.261054099E-3
3.791590888E0,1.171789877E-2,7.723160554E-3,-3.195790574E-3
3.794104065E0,1.384842582E-2,3.462106455E-3,-2.130527049E-3
3.796617242E0,1.278316230E-2,5.592633504E-3,-1.065263525E-3
3.799130419E0,1.491368935E-2,3.462106455E-3,-0.000000000E0
3.801643544E0,1.384842582E-2,2.663158812E-4,1.065263525E-3
3.804156721E0,1.171789877E-2,1.331579406E-3,-0.000000000E0
3.806669898E0,1.491368935E-2,-1.864211168E-3,-0.000000000E0
3.809183075E0,1.171789877E-2,-7.989476435E-4,1.065263525E-3
3.811696200E0,1.065263525E-2,-1.864211168E-3,3.195790574E-3
3.814209377E0,7.456844673E-3,1.331579406E-3,-1.065263525E-3
3.816722554E0,7.456844673E-3,1.331579406E-3,-2.130527049E-3
3.819235732E0,2.130527049E-3,-7.989476435E-4,-2.130527049E-3
3.821748857E0,1.065263525E-3,3.462106455E-3,1.065263525E-3
3.824262034E0,-3.195790574E-3,4.527369980E-3,-0.000000000E0
3.826775211E0,-6.391581148E-3,2.396842930E-3,-1.065263525E-3
3.829288388E0,-1.065263525E-2,4.527369980E-3,-0.000000000E0
3.831801513E0,-1.491368935E-2,4.527369980E-3,2.130527049E-3
3.834314690E0,-1.597895287E-2,4.527369980E-3,2.130527049E-3
3.836827867E0,-2.024000697E-2,3.462106455E-3,2.130527049E-3
3.839340992E0,-2.450106107E-2,2.396842930E-3,2.130527049E-3
3.841854169E0,-2.663158812E-2,3.462106455E-3,-0.000000000E0
3.844367346E0,-2.769685164E-2,2.396842930E-3,-0.000000000E0
3.846880523E0,-2.876211517E-2,-7.989476435E-4,-1.065263525E-3
3.849393648E0,-3.195790574E-2,-1.864211168E-3,-0.000000000E0
3.851906825E0,-2.982737869E-2,-2.929474693E-3,-1.065263525E-3
3.854420002E0,-2.663158812E-2,-8.255792782E-3,-0.000000000E0
3.856933179E0,-2.769685164E-2,-1.251684688E-2,1.065263525E-3
3.859446304E0,-2.556632459E-2,-1.571263745E-2,-0.000000000E0
3.861959482E0,-2.237053402E-2,-1.571263745E-2,-1.065263525E-3
3.864472659E0,-2.024000697E-2,-1.677790098E-2,-1.065263525E-3
3.866985836E0,-1.704421639E-2,-2.103895508E-2,-0.000000000E0
3.869498961E0,-1.171789877E-2,-1.890842803E-2,2.130527049E-3
3.872012138E0,-1.278316230E-2,-1.677790098E-2,1.065263525E-3
3.874525315E0,-1.065263525E-2,-1.890842803E-2,1.065263525E-3
3.877038492E0,-5.326317623E-3,-2.423474565E-2,1.065263525E-3
3.879551617E0,-0.000000000E0,-2.210421860E-2,-0.000000000E0
3.882064794E0,2.130527049E-3,-2.103895508E-2,2.130527049E-3
3.884577971E0,4.261054099E-3,-2.210421860E-2,-0.000000000E0
3.887091148E0,1.065263525E-2,-1.997369155E-2,1.065263525E-3
3.889604273E0,9.587371722E-3,-2.210421860E-2,-0.000000000E0
3.892117450E0,1.065263525E-2,-1.997369155E-2,-1.065263525E-3
3.894630627E0,1.171789877E-2,-1.890842803E-2,-2.130527049E-3
3.897143804E0,9.587371722E-3,-1.571263745E-2,-1.065263525E-3
3.899656929E0,9.587371722E-3,-1.997369155E-2,-1.065263525E-3
3.902170107E0,8.522108197E-3,-1.677790098E-2,-1.065263525E-3
3.904683284E0,8.522108197E-3,-1.145158336E-2,2.130527049E-3
3.907196409E0,4.261054099E-3,-1.251684688E-2,2.130527049E-3
3.909709586E0,3.195790574E-3,-1.038631983E-2,1.065263525E-3
3.912222763E0,4.261054099E-3,-1.145158336E-2,4.261054099E-3
3.914735940E0,-1.065263525E-3,-1.145158336E-2,3.195790574E-3
3.917249065E0,-3.195790574E-3,-1.145158336E-2,6.391581148E-3
3.919762242E0,-4.261054099E-3,-1.145158336E-2,5.326317623E-3
3.922275419E0,-7.456844673E-3,-1.145158336E-2,8.522108197E-3
3.924788596E0,-1.065263525E-2,-1.251684688E-2,1.065263525E-2
3.927301721E0,-9.587371722E-3,-1.677790098E-2,1.065263525E-2
3.929814898E0,-1.384842582E-2,-1.571263745E-2,1.171789877E-2
3.932328075E0,-1.491368935E-2,-1.358211040E-2,1.171789877E-2
3.934841252E0,-1.171789877E-2,-1.677790098E-2,1.491368935E-2
3.937354377E0,-9.587371722E-3,-1.890842803E-2,1.384842582E-2
3.939867554E0,-7.456844673E-3,-1.677790098E-2,1.065263525E-2
3.942380732E0,-9.587371722E-3,-1.997369155E-2,1.065263525E-2
3.944893909E0,-5.326317623E-3,-1.997369155E-2,1.065263525E-2
3.947407034E0,-3.195790574E-3,-1.890842803E-2,9.587371722E-3
3.949920211E0,-3.195790574E-3,-1.997369155E-2,1.171789877E-2
3.952433388E0,-4.261054099E-3,-2.210421860E-2,7.456844673E-3
3.954946565E0,-4.261054099E-3,-2.530000918E-2,9.587371722E-3
3.957459690E0,-5.326317623E-3,-2.743053623E-2,1.065263525E-2
3.959972867E0,-3.195790574E-3,-2.849579975E-2,9.587371722E-3
3.962486044E0,-2.130527049E-3,-3.169158846E-2,9.587371722E-3
3.964999221E0,-0.000000000E0,-3.169158846E-2,1.065263525E-2
3.967512346E0,-1.065263525E-3,-3.169158846E-2,9.587371722E-3
3.970025523E0,-0.000000000E0,-3.275685385E-2,8.522108197E-3
3.972538700E0,1.065263525E-3,-3.595264256E-2,7.456844673E-3
3.975051877E0,3.195790574E-3,-3.595264256E-2,5.326317623E-3
3.977565002E0,8.522108197E-3,-3.382211551E-2,6.391581148E-3
3.980078179E0,1.171789877E-2,-3.382211551E-2,5.326317623E-3
3.982591357E0,7.456844673E-3,-3.488738090E-2,3.195790574E-3
3.985104482E0,1.065263525E-2,-3.275685385E-2,5.326317623E-3
3.987617659E0,8.522108197E-3,-3.169158846E-2,5.326317623E-3
3.990130836E0,1.171789877E-2,-3.488738090E-2,2.130527049E-3
3.992644013E0,1.491368935E-2,-3.382211551E-2,7.456844673E-3
3.995157138E0,1.704421639E-2,-3.382211551E-2,7.456844673E-3
3.997670315E0,1.171789877E-2,-3.275685385E-2,6.391581148E-3
4.000183492E0,1.065263525E-2,-3.275685385E-2,9.587371722E-3
4.002696669E0,1.171789877E-2,-3.062632680E-2,1.171789877E-2
4.005209794E0,1.065263525E-2,-2.530000918E-2,1.384842582E-2
4.007722971E0,8.522108197E-3,-1.890842803E-2,1.491368935E-2
4.010236148E0,1.065263525E-3,-1.358211040E-2,1.278316230E-2
4.012749325E0,2.130527049E-3,-1.038631983E-2,1.278316230E-2
4.015262450E0,2.130527049E-3,-7.190528791E-3,1.491368935E-2
4.017775627E0,-0.000000000E0,-1.864211168E-3,1.491368935E-2
4.020288804E0,-1.065263525E-3,-5.060001742E-3,1.597895287E-2
4.022801982E0,-3.195790574E-3,-5.060001742E-3,1.704421639E-2
4.025315107E0,-4.261054099E-3,-5.060001742E-3,1.597895287E-2
4.027828284E0,-4.261054099E-3,-1.864211168E-3,1.384842582E-2
4.030341461E0,-3.195790574E-3,-2.929474693E-3,1.704421639E-2
4.032854638E0,-7.456844673E-3,-7.190528791E-3,1.704421639E-2
4.035367763E0,-9.587371722E-3,-1.145158336E-2,1.384842582E-2
4.037880940E0,-8.522108197E-3,-1.571263745E-2,1.704421639E-2
4.040394169E0,-5.326317623E-3,-2.316948213E-2,1.704421639E-2
4.042907398E0,-1.171789877E-2,-2.636527270E-2,1.491368935E-2
4.045420627E0,-1.384842582E-2,-2.849579975E-2,1.491368935E-2
4.047933857E0,-1.278316230E-2,-3.169158846E-2,1.491368935E-2
4.050447086E0,-9.587371722E-3,-3.488738090E-2,1.917474344E-2
4.052960315E0,-1.171789877E-2,-3.595264256E-2,1.491368935E-2
4.055473544E0,-1.065263525E-2,-3.169158846E-2,1.597895287E-2
4.057986773E0,-1.491368935E-2,-3.382211551E-2,1.597895287E-2
4.060500002E0,-1.597895287E-2,-3.169158846E-2,1.278316230E-2
4.063013232E0,-1.278316230E-2,-2.956106327E-2,1.278316230E-2
4.065526461E0,-1.171789877E-2,-2.210421860E-2,1.171789877E-2
4.068039690E0,-1.171789877E-2,-1.251684688E-2,8.522108197E-3
4.070552919E0,-1.171789877E-2,-8.255792782E-3,8.522108197E-3
4.073066148E0,-1.491368935E-2,-6.125265267E-3,8.522108197E-3
4.075579377E0,-1.384842582E-2,-3.994738217E-3,9.587371722E-3
4.078092607E0,-1.278316230E-2,-1.864211168E-3,8.522108197E-3
4.080605836E0,-1.171789877E-2,-1.864211168E-3,7.456844673E-3
4.083119065E0,-1.278316230E-2,2.663158812E-4,4.261054099E-3
4.085632294E0,-1.278316230E-2,-7.989476435E-4,5.326317623E-3
4.088145523E0,-1.278316230E-2,-2.929474693E-3,6.391581148E-3
4.090658752E0,-1.171789877E-2,-5.060001742E-3,4.261054099E-3
4.093171982E0,-1.065263525E-2,-5.060001742E-3,4.261054099E-3
4.095685211E0,-1.065263525E-2,-8.255792782E-3,1.065263525E-3
4.098198440E0,-1.065263525E-2,-1.464737393E-2,-1.065263525E-3
4.100711669E0,-7.456844673E-3,-1.571263745E-2,-0.000000000E0
4.103224898E0,-8.522108197E-3,-1.464737393E-2,-1.065263525E-3
4.105738127E0,-5.326317623E-3,-1.997369155E-2,-1.065263525E-3
4.108251357E0,-1.065263525E-3,-2.210421860E-2,3.195790574E-3
4.110764586E0,-0.000000000E0,-2.423474565E-2,1.065263525E-3
4.113277815E0,1.065263525E-3,-2.103895508E-2,4.261054099E-3
4.115791044E0,4.261054099E-3,-2.103895508E-2,4.261054099E-3
4.118304273E0,7.456844673E-3,-2.316948213E-2,3.195790574E-3
4.120817502E0,9.587371722E-3,-2.316948213E-2,5.326317623E-3
4.123330732E0,1.384842582E-2,-2.423474565E-2,4.261054099E-3
4.125843961E0,1.384842582E-2,-1.997369155E-2,5.326317623E-3
4.128357190E0,1.278316230E-2,-1.571263745E-2,6.391581148E-3
4.130870419E0,1.597895287E-2,-1.784316450E-2,3.195790574E-3
4.133383648E0,1.597895287E-2,-1.677790098E-2,6.391581148E-3
4.135896877E0,1.491368935E-2,-1.571263745E-2,5.326317623E-3
4.138410107E0,1.597895287E-2,-1.571263745E-2,4.261054099E-3
4.140923336E0,1.171789877E-2,-1.358211040E-2,4.261054099E-3
4.143436565E0,1.384842582E-2,-8.255792782E-3,6.391581148E-3
4.145949794E0,1.384842582E-2,-1.038631983E-2,3.195790574E-3
4.148463023E0,1.171789877E-2,-7.190528791E-3,4.261054099E-3
4.150976252E0,9.587371722E-3,-8.255792782E-3,5.326317623E-3
4.153489482E0,8.522108197E-3,-6.125265267E-3,3.195790574E-3
4.156002711E0,5.326317623E-3,-5.060001742E-3,3.195790574E-3
4.158515940E0,4.261054099E-3,-3.994738217E-3,3.195790574E-3
4.161029169E0,2.130527049E-3,-2.929474693E-3,5.326317623E-3
4.163542398E0,1.065263525E-3,2.663158812E-4,4.261054099E-3
4.166055627E0,-3.195790574E-3,2.663158812E-4,6.391581148E-3
4.168568857E0,-5.326317623E-3,-7.989476435E-4,5.326317623E-3
4.171082086E0,-7.456844673E-3,3.462106455E-3,7.456844673E-3
4.173595315E0,-4.261054099E-3,5.592633504E-3,8.522108197E-3
4.176108544E0,-7.456844673E-3,5.592633504E-3,1.065263525E-2
4.178621773E0,-9.587371722E-3,3.462106455E-3,6.391581148E-3
4.181135002E0,-8.522108197E-3,4.527369980E-3,8.522108197E-3
4.183648232E0,-4.261054099E-3,5.592633504E-3,9.587371722E-3
4.186161461E0,-5.326317623E-3,4.527369980E-3,1.065263525E-2
4.188674690E0,-5.326317623E-3,7.723160554E-3,9.587371722E-3
4.191187815E0,-4.261054099E-3,5.592633504E-3,1.065263525E-2
4.193700679E0,-2.130527049E-3,4.527369980E-3,8.522108197E-3
4.196213492E0,2.130527049E-3,2.396842930E-3,8.522108197E-3
4.198726357E0,3.195790574E-3,2.396842930E-3,1.065263525E-2
4.201239221E0,2.130527049E-3,4.527369980E-3,8.522108197E-3
4.203752086E0,5.326317623E-3,3.462106455E-3,8.522108197E-3
4.206264950E0,7.456844673E-3,-5.060001742E-3,1.171789877E-2
4.208777815E0,9.587371722E-3,-3.994738217E-3,1.278316230E-2
4.211290679E0,8.522108197E-3,-2.929474693E-3,1.171789877E-2
4.213803544E0,7.456844673E-3,-5.060001742E-3,1.278316230E-2
4.216316409E0,7.456844673E-3,-8.255792782E-3,1.491368935E-2
4.218829221E0,6.391581148E-3,-9.321056306E-3,1.597895287E-2
4.221342086E0,5.326317623E-3,-9.321056306E-3,1.491368935E-2
4.223854950E0,1.065263525E-3,-8.255792782E-3,1.278316230E-2
4.226367815E0,-2.130527049E-3,-9.321056306E-3,1.278316230E-2
4.228880679E0,-5.326317623E-3,-1.358211040E-2,1.491368935E-2
4.231393544E0,-8.522108197E-3,-1.571263745E-2,1.491368935E-2
4.233906409E0,-1.384842582E-2,-1.571263745E-2,1.384842582E-2
4.236419273E0,-1.597895287E-2,-1.784316450E-2,1.597895287E-2
4.238932138E0,-1.491368935E-2,-2.210421860E-2,1.597895287E-2
4.241444950E0,-2.237053402E-2,-2.210421860E-2,1.384842582E-2
4.243957815E0,-2.343579754E-2,-2.103895508E-2,1.384842582E-2
4.246470679E0,-1.917474344E-2,-2.210421860E-2,1.597895287E-2
4.248983544E0,-1.810947992E-2,-2.530000918E-2,1.384842582E-2
4.251496409E0,-2.024000697E-2,-2.316948213E-2,1.384842582E-2
4.254009273E0,-1.704421639E-2,-2.636527270E-2,1.171789877E-2
4.256522138E0,-2.024000697E-2,-3.062632680E-2,1.384842582E-2
4.259035002E0,-1.597895287E-2,-2.849579975E-2,1.384842582E-2
4.261547867E0,-1.278316230E-2,-2.956106327E-2,1.384842582E-2
4.264060679E0,-8.522108197E-3,-2.956106327E-2,8.522108197E-3
4.266573544E0,-4.261054099E-3,-2.956106327E-2,6.391581148E-3
4.269086409E0,1.065263525E-3,-3.062632680E-2,7.456844673E-3
4.271599273E0,6.391581148E-3,-3.169158846E-2,6.391581148E-3
4.274112138E0,9.587371722E-3,-3.062632680E-2,5.326317623E-3
4.276625002E0,1.704421639E-2,-3.062632680E-2,2.130527049E-3
4.279137867E0,2.130527049E-2,-3.169158846E-2,1.065263525E-3
4.281650732E0,2.663158812E-2,-3.062632680E-2,7.456844673E-3
4.284163544E0,3.408843279E-2,-2.636527270E-2,5.326317623E-3
4.286676409E0,4.048001394E-2,-2.530000918E-2,3.195790574E-3
4.289189273E0,3.728422523E-2,-2.743053623E-2,4.261054099E-3
4.291702138E0,4.367580265E-2,-2.530000918E-2,6.391581148E-3
4.294215002E0,4.261054099E-2,-2.103895508E-2,3.195790574E-3
4.296727867E0,3.941474855E-2,-1.784316450E-2,4.261054099E-3
4.299240732E0,4.367580265E-2,-1.571263745E-2,5.326317623E-3
4.301753596E0,4.261054099E-2,-1.251684688E-2,5.326317623E-3
4.304266461E0,3.834948689E-2,-1.464737393E-2,6.391581148E-3
4.306779273E0,3.728422523E-2,-1.464737393E-2,5.326317623E-3
4.309292138E0,3.408843279E-2,-1.251684688E-2,8.522108197E-3
4.311805002E0,3.408843279E-2,-1.464737393E-2,7.456844673E-3
4.314317867E0,2.876211517E-2,-1.571263745E-2,8.522108197E-3
4.316830732E0,2.237053402E-2,-1.890842803E-2,1.384842582E-2
4.319343596E0,2.024000697E-2,-2.103895508E-2,1.597895287E-2
4.321856461E0,1.384842582E-2,-2.103895508E-2,1.810947992E-2
4.324369325E0,7.456844673E-3,-2.423474565E-2,2.024000697E-2
4.326882190E0,6.391581148E-3,-2.530000918E-2,2.237053402E-2
4.329395002E0,-0.000000000E0,-2.849579975E-2,2.237053402E-2
4.331907867E0,-7.456844673E-3,-2.530000918E-2,2.450106107E-2
4.334420732E0,-1.704421639E-2,-2.423474565E-2,2.663158812E-2
4.336933596E0,-1.917474344E-2,-2.530000918E-2,2.556632459E-2
4.339446461E0,-2.237053402E-2,-2.423474565E-2,2.876211517E-2
4.341959325E0,-2.343579754E-2,-2.636527270E-2,2.556632459E-2
4.344472190E0,-3.089264221E-2,-2.636527270E-2,2.450106107E-2
4.346985054E0,-3.089264221E-2,-2.743053623E-2,2.237053402E-2
4.349497919E0,-3.089264221E-2,-2.743053623E-2,2.024000697E-2
4.352010732E0,-2.982737869E-2,-2.636527270E-2,1.917474344E-2
4.354523596E0,-2.876211517E-2,-2.743053623E-2,1.704421639E-2
4.357036461E0,-2.450106107E-2,-3.062632680E-2,1.597895287E-2
4.359549325E0,-2.237053402E-2,-3.169158846E-2,1.491368935E-2
4.362062190E0,-2.024000697E-2,-3.169158846E-2,9.587371722E-3
4.364575054E0,-1.704421639E-2,-3.169158846E-2,7.456844673E-3
4.367087919E0,-9.587371722E-3,-3.275685385E-2,4.261054099E-3
4.369600784E0,-7.456844673E-3,-3.169158846E-2,3.195790574E-3
4.372113648E0,-3.195790574E-3,-3.062632680E-2,1.065263525E-3
4.374626461E0,1.065263525E-3,-3.062632680E-2,3.195790574E-3
4.377139325E0,2.130527049E-3,-2.636527270E-2,1.065263525E-3
4.379652190E0,5.326317623E-3,-2.210421860E-2,3.195790574E-3
4.382165054E0,8.522108197E-3,-2.210421860E-2,2.130527049E-3
4.384677919E0,1.065263525E-2,-2.210421860E-2,2.130527049E-3
4.387190784E0,7.456844673E-3,-1.997369155E-2,-1.065263525E-3
4.389703648E0,7.456844673E-3,-1.784316450E-2,-3.195790574E-3
4.392216513E0,6.391581148E-3,-1.890842803E-2,-3.195790574E-3
4.394729377E0,5.326317623E-3,-1.464737393E-2,-2.130527049E-3
4.397242190E0,3.195790574E-3,-1.571263745E-2,-1.065263525E-3
4.399755054E0,1.065263525E-3,-1.464737393E-2,-1.065263525E-3
4.402267919E0,-4.261054099E-3,-1.571263745E-2,-1.065263525E-3
4.404780784E0,-5.326317623E-3,-1.358211040E-2,1.065263525E-3
4.407293648E0,-1.065263525E-2,-1.038631983E-2,2.130527049E-3
4.409806513E0,-1.384842582E-2,-8.255792782E-3,2.130527049E-3
4.412319377E0,-1.491368935E-2,-8.255792782E-3,7.456844673E-3
4.414832242E0,-2.024000697E-2,-7.190528791E-3,7.456844673E-3
4.417345107E0,-2.237053402E-2,-6.125265267E-3,7.456844673E-3
4.419857919E0,-2.343579754E-2,-7.190528791E-3,6.391581148E-3
4.422370784E0,-2.343579754E-2,-6.125265267E-3,7.456844673E-3
4.424883648E0,-2.343579754E-2,-5.060001742E-3,8.522108197E-3
4.427396513E0,-2.663158812E-2,-3.994738217E-3,9.587371722E-3
4.429909377E0,-2.556632459E-2,-3.994738217E-3,6.391581148E-3
4.432422242E0,-2.556632459E-2,-7.190528791E-3,7.456844673E-3
4.434935107E0,-2.769685164E-2,-6.125265267E-3,5.326317623E-3
4.437447971E0,-3.089264221E-2,-3.994738217E-3,5.326317623E-3
4.439960836E0,-2.876211517E-2,-3.994738217E-3,2.130527049E-3
4.442473648E0,-2.556632459E-2,-1.864211168E-3,1.065263525E-3
4.444986513E0,-2.130527049E-2,-7.989476435E-4,-1.065263525E-3
4.447499377E0,-1.810947992E-2,2.396842930E-3,-2.130527049E-3
4.450012242E0,-1.810947992E-2,4.527369980E-3,-5.326317623E-3
4.452525107E0,-1.384842582E-2,2.663158812E-4,-5.326317623E-3
4.455037971E0,-1.065263525E-2,-1.864211168E-3,-9.587371722E-3
4.457550836E0,-7.456844673E-3,-2.929474693E-3,-7.456844673E-3
4.460063700E0,-5.326317623E-3,-3.994738217E-3,-8.522108197E-3
4.462576565E0,-3.195790574E-3,-5.060001742E-3,-7.456844673E-3
4.465089377E0,1.065263525E-3,-5.060001742E-3,-5.326317623E-3
4.467602242E0,3.195790574E-3,-6.125265267E-3,-7.456844673E-3
4.470115107E0,5.326317623E-3,-1.038631983E-2,-5.326317623E-3
4.472627971E0,6.391581148E-3,-1.145158336E-2,-6.391581148E-3
4.475140836E0,4.261054099E-3,-1.251684688E-2,-5.326317623E-3
4.477653700E0,6.391581148E-3,-1.358211040E-2,-1.065263525E-3
4.480166565E0,5.326317623E-3,-1.677790098E-2,1.065263525E-3
4.482679429E0,5.326317623E-3,-1.784316450E-2,-1.065263525E-3
4.485192242E0,4.261054099E-3,-1.677790098E-2,-0.000000000E0
4.487705107E0,3.195790574E-3,-1.784316450E-2,2.130527049E-3
4.490217971E0,1.065263525E-3,-1.464737393E-2,4.261054099E-3
4.492730836E0,2.130527049E-3,-1.251684688E-2,5.326317623E-3
4.495243700E0,-0.000000000E0,-1.677790098E-2,7.456844673E-3
4.497756565E0,-4.261054099E-3,-1.251684688E-2,5.326317623E-3
4.500269429E0,-1.065263525E-3,-7.190528791E-3,7.456844673E-3
4.502782294E0,-2.130527049E-3,-7.190528791E-3,9.587371722E-3
4.505295159E0,-4.261054099E-3,-7.190528791E-3,9.587371722E-3
4.507807971E0,-0.000000000E0,-3.994738217E-3,9.587371722E-3
4.510320836E0,-1.065263525E-3,2.663158812E-4,6.391581148E-3
4.512833700E0,1.065263525E-3,2.396842930E-3,8.522108197E-3
4.515346565E0,1.065263525E-3,1.331579406E-3,8.522108197E-3
4.517859429E0,5.326317623E-3,3.462106455E-3,1.065263525E-2
4.520372294E0,9.587371722E-3,5.592633504E-3,1.065263525E-2
4.522885159E0,9.587371722E-3,7.723160554E-3,1.278316230E-2
4.525398023E0,1.171789877E-2,9.853687137E-3,1.065263525E-2
4.527910888E0,1.171789877E-2,1.411474124E-2,1.065263525E-2
4.530423700E0,1.278316230E-2,1.411474124E-2,1.171789877E-2
4.532936565E0,1.704421639E-2,1.518000476E-2,9.587371722E-3
4.535449482E0,1.810947992E-2,1.518000476E-2,9.587371722E-3
4.537962502E0,1.597895287E-2,1.731053181E-2,1.065263525E-2
4.540475575E0,1.704421639E-2,1.411474124E-2,1.384842582E-2
4.542988700E0,1.597895287E-2,1.518000476E-2,1.278316230E-2
4.545501773E0,1.597895287E-2,1.518000476E-2,1.384842582E-2
4.548014846E0,1.917474344E-2,1.624526829E-2,1.491368935E-2
4.550527971E0,1.917474344E-2,1.624526829E-2,1.171789877E-2
4.553041044E0,1.278316230E-2,1.411474124E-2,1.491368935E-2
4.555554117E0,6.391581148E-3,1.198421419E-2,1.917474344E-2
4.558067242E0,4.261054099E-3,8.788423613E-3,1.491368935E-2
4.560580315E0,5.326317623E-3,7.723160554E-3,1.491368935E-2
4.563093388E0,2.130527049E-3,3.462106455E-3,1.491368935E-2
4.565606513E0,2.130527049E-3,2.396842930E-3,1.278316230E-2
4.568119586E0,-2.130527049E-3,1.331579406E-3,1.278316230E-2
4.570632659E0,-4.261054099E-3,-2.929474693E-3,9.587371722E-3
4.573145784E0,-6.391581148E-3,-5.060001742E-3,7.456844673E-3
4.575658857E0,-3.195790574E-3,-6.125265267E-3,8.522108197E-3
4.578171929E0,-2.130527049E-3,-7.190528791E-3,7.456844673E-3
4.580685054E0,-4.261054099E-3,-7.190528791E-3,2.130527049E-3
4.583198127E0,-3.195790574E-3,-1.145158336E-2,4.261054099E-3
4.585711200E0,-4.261054099E-3,-7.190528791E-3,4.261054099E-3
4.588224273E0,-6.391581148E-3,-1.038631983E-2,2.130527049E-3
4.590737398E0,-6.391581148E-3,-1.038631983E-2,-0.000000000E0
4.593250471E0,-6.391581148E-3,-7.190528791E-3,3.195790574E-3
4.595763544E0,-3.195790574E-3,-5.060001742E-3,-0.000000000E0
4.598276669E0,-2.130527049E-3,-3.994738217E-3,-1.065263525E-3
4.600789742E0,1.065263525E-3,1.331579406E-3,-0.000000000E0
4.603302815E0,1.065263525E-3,5.592633504E-3,-0.000000000E0
4.605815940E0,-0.000000000E0,4.527369980E-3,-3.195790574E-3
4.608329013E0,2.130527049E-3,7.723160554E-3,-0.000000000E0
4.610842086E0,5.326317623E-3,1.091895066E-2,-3.195790574E-3
4.613355211E0,6.391581148E-3,9.853687137E-3,-6.391581148E-3
4.615868284E0,9.587371722E-3,8.788423613E-3,-1.065263525E-3
4.618381357E0,9.587371722E-3,1.304947771E-2,-3.195790574E-3
4.620894482E0,1.597895287E-2,1.304947771E-2,-4.261054099E-3
4.623407554E0,1.810947992E-2,1.198421419E-2,-1.065263525E-3
4.625920627E0,1.704421639E-2,9.853687137E-3,1.065263525E-3
4.628433752E0,2.556632459E-2,7.723160554E-3,-0.000000000E0
4.630946825E0,2.769685164E-2,3.462106455E-3,-3.195790574E-3
4.633459898E0,2.769685164E-2,2.396842930E-3,-0.000000000E0
4.635973023E0,2.982737869E-2,2.663158812E-4,1.065263525E-3
4.638486096E0,3.302317113E-2,-7.989476435E-4,-2.130527049E-3
4.640999169E0,3.089264221E-2,2.663158812E-4,-0.000000000E0
4.643512294E0,3.195790574E-2,3.462106455E-3,-2.130527049E-3
4.646025367E0,2.982737869E-2,2.663158812E-4,-4.261054099E-3
4.648538440E0,3.302317113E-2,2.663158812E-4,-3.195790574E-3
4.651051565E0,3.302317113E-2,2.663158812E-4,-3.195790574E-3
4.653564638E0,2.769685164E-2,2.663158812E-4,-5.326317623E-3
4.656077711E0,2.769685164E-2,-7.989476435E-4,-7.456844673E-3
4.658590836E0,2.769685164E-2,-1.864211168E-3,-3.195790574E-3
4.661103909E0,2.876211517E-2,2.396842930E-3,-4.261054099E-3
4.663616982E0,2.982737869E-2,2.663158812E-4,-1.065263525E-3
4.666130107E0,2.343579754E-2,-2.929474693E-3,-3.195790574E-3
4.668643179E0,2.130527049E-2,1.331579406E-3,-0.000000000E0
4.671156252E0,2.237053402E-2,1.331579406E-3,-1.065263525E-3
4.673669377E0,2.024000697E-2,3.462106455E-3,3.195790574E-3
4.676182450E0,1.704421639E-2,4.527369980E-3,3.195790574E-3
4.678695523E0,1.597895287E-2,3.462106455E-3,4.261054099E-3
4.681208648E0,1.171789877E-2,5.592633504E-3,7.456844673E-3
4.683721721E0,8.522108197E-3,3.462106455E-3,7.456844673E-3
4.686234794E0,8.522108197E-3,5.592633504E-3,7.456844673E-3
4.688747919E0,8.522108197E-3,3.462106455E-3,1.065263525E-2
4.691260992E0,4.261054099E-3,3.462106455E-3,1.278316230E-2
4.693774065E0,3.195790574E-3,2.663158812E-4,1.278316230E-2
4.696287138E0,4.261054099E-3,2.663158812E-4,1.065263525E-2
4.698800263E0,1.065263525E-3,-1.864211168E-3,1.278316230E-2
4.701313336E0,-1.065263525E-3,1.331579406E-3,1.384842582E-2
4.703826409E0,1.065263525E-3,1.331579406E-3,1.278316230E-2
4.706339534E0,1.065263525E-3,2.396842930E-3,1.278316230E-2
4.708852607E0,-2.130527049E-3,4.527369980E-3,1.278316230E-2
4.711365679E0,-0.000000000E0,2.396842930E-3,1.491368935E-2
4.713878804E0,-1.065263525E-3,5.592633504E-3,1.384842582E-2
4.716391877E0,-0.000000000E0,5.592633504E-3,1.704421639E-2
4.718904950E0,2.130527049E-3,5.592633504E-3,1.491368935E-2
4.721418075E0,2.130527049E-3,3.462106455E-3,1.704421639E-2
4.723931148E0,3.195790574E-3,4.527369980E-3,1.597895287E-2
4.726444221E0,4.261054099E-3,5.592633504E-3,1.384842582E-2
4.728957346E0,6.391581148E-3,1.304947771E-2,1.278316230E-2
4.731470419E0,6.391581148E-3,1.198421419E-2,1.491368935E-2
4.733983492E0,7.456844673E-3,9.853687137E-3,1.278316230E-2
4.736496617E0,9.587371722E-3,1.091895066E-2,8.522108197E-3
4.739009690E0,9.587371722E-3,8.788423613E-3,5.326317623E-3
4.741522763E0,1.171789877E-2,5.592633504E-3,7.456844673E-3
4.744035888E0,1.384842582E-2,4.527369980E-3,7.456844673E-3
4.746548961E0,1.384842582E-2,6.657897029E-3,5.326317623E-3
4.749062034E0,1.065263525E-2,4.527369980E-3,4.261054099E-3
4.751575159E0,1.384842582E-2,6.657897029E-3,1.065263525E-3
4.754088232E0,1.384842582E-2,7.723160554E-3,4.261054099E-3
4.756601304E0,1.278316230E-2,6.657897029E-3,1.065263525E-3
4.759114429E0,1.171789877E-2,6.657897029E-3,-1.065263525E-3
4.761627502E0,1.171789877E-2,7.723160554E-3,-1.065263525E-3
4.764140575E0,7.456844673E-3,5.592633504E-3,-3.195790574E-3
4.766653700E0,6.391581148E-3,8.788423613E-3,-2.130527049E-3
4.769166773E0,9.587371722E-3,6.657897029E-3,-4.261054099E-3
4.771679846E0,1.065263525E-2,5.592633504E-3,-4.261054099E-3
4.774192971E0,6.391581148E-3,4.527369980E-3,-3.195790574E-3
4.776706044E0,7.456844673E-3,2.396842930E-3,-4.261054099E-3
4.779219117E0,3.195790574E-3,3.462106455E-3,-4.261054099E-3
4.781732242E0,2.130527049E-3,1.331579406E-3,-3.195790574E-3
4.784245315E0,3.195790574E-3,2.663158812E-4,-5.326317623E-3
4.786758388E0,4.261054099E-3,2.663158812E-4,-4.261054099E-3
4.789271513E0,1.065263525E-3,-1.864211168E-3,-3.195790574E-3
4.791784586E0,-2.130527049E-3,-7.989476435E-4,-4.261054099E-3
4.794297659E0,-1.065263525E-3,-7.989476435E-4,-4.261054099E-3
4.796810784E0,-4.261054099E-3,2.663158812E-4,-5.326317623E-3
4.799323857E0,-5.326317623E-3,2.663158812E-4,-5.326317623E-3
4.801836929E0,-5.326317623E-3,-2.929474693E-3,-4.261054099E-3
4.804350002E0,-6.391581148E-3,-1.864211168E-3,-5.326317623E-3
4.806863127E0,-7.456844673E-3,1.331579406E-3,-8.522108197E-3
4.809376200E0,-7.456844673E-3,6.657897029E-3,-6.391581148E-3
4.811889273E0,-8.522108197E-3,9.853687137E-3,-8.522108197E-3
4.814402398E0,-7.456844673E-3,1.304947771E-2,-8.522108197E-3
4.816915471E0,-1.065263525E-3,1.518000476E-2,-8.522108197E-3
4.819428544E0,-0.000000000E0,1.624526829E-2,-8.522108197E-3
4.821941669E0,-4.261054099E-3,1.837579533E-2,-8.522108197E-3
4.824454742E0,-4.261054099E-3,1.624526829E-2,-7.456844673E-3
4.826967815E0,1.065263525E-3,2.476737648E-2,-4.261054099E-3
4.829480940E0,4.261054099E-3,2.370211296E-2,-5.326317623E-3
4.831994013E0,4.261054099E-3,2.476737648E-2,-5.326317623E-3
4.834507086E0,8.522108197E-3,2.370211296E-2,-6.391581148E-3
4.837020211E0,1.384842582E-2,2.370211296E-2,-5.326317623E-3
4.839533284E0,1.704421639E-2,1.944105886E-2,-4.261054099E-3
4.842046357E0,1.491368935E-2,1.731053181E-2,-0.000000000E0
4.844559482E0,1.704421639E-2,1.518000476E-2,-0.000000000E0
4.847072554E0,1.917474344E-2,1.411474124E-2,-0.000000000E0
4.849585627E0,2.450106107E-2,9.853687137E-3,1.065263525E-3
4.852098752E0,2.343579754E-2,5.592633504E-3,2.130527049E-3
4.854611825E0,2.663158812E-2,4.527369980E-3,4.261054099E-3
4.857124898E0,2.663158812E-2,2.663158812E-4,-0.000000000E0
4.859638023E0,2.237053402E-2,-3.994738217E-3,2.130527049E-3
4.862151096E0,2.450106107E-2,-8.255792782E-3,-1.065263525E-3
4.864664169E0,2.343579754E-2,-9.321056306E-3,1.065263525E-3
4.867177294E0,2.024000697E-2,-1.358211040E-2,-1.065263525E-3
4.869690367E0,1.704421639E-2,-1.464737393E-2,1.065263525E-3
4.872203440E0,1.597895287E-2,-1.571263745E-2,-2.130527049E-3
4.874716565E0,1.278316230E-2,-1.251684688E-2,-1.065263525E-3
4.877229638E0,8.522108197E-3,-1.145158336E-2,3.195790574E-3
4.879742711E0,5.326317623E-3,-1.251684688E-2,3.195790574E-3
4.882255836E0,2.130527049E-3,-9.321056306E-3,5.326317623E-3
4.884768909E0,-1.065263525E-3,-3.994738217E-3,3.195790574E-3
4.887281982E0,-4.261054099E-3,-7.989476435E-4,1.065263525E-3
4.889795107E0,-6.391581148E-3,4.527369980E-3,4.261054099E-3
4.892308179E0,-8.522108197E-3,4.527369980E-3,4.261054099E-3
4.894821252E0,-1.171789877E-2,8.788423613E-3,2.130527049E-3
4.897334377E0,-1.171789877E-2,1.198421419E-2,4.261054099E-3
4.899847450E0,-1.278316230E-2,1.411474124E-2,7.456844673E-3
4.902360523E0,-1.491368935E-2,1.304947771E-2,8.522108197E-3
4.904873648E0,-1.810947992E-2,1.304947771E-2,6.391581148E-3
4.907386721E0,-1.917474344E-2,9.853687137E-3,7.456844673E-3
4.909899794E0,-2.130527049E-2,7.723160554E-3,1.065263525E-2
4.912412867E0,-2.343579754E-2,8.788423613E-3,1.278316230E-2
4.914925992E0,-2.556632459E-2,6.657897029E-3,1.171789877E-2
4.917439065E0,-2.982737869E-2,6.657897029E-3,1.278316230E-2
4.919952138E0,-3.302317113E-2,1.198421419E-2,1.278316230E-2
4.922465263E0,-3.834948689E-2,1.198421419E-2,9.587371722E-3
4.924978336E0,-3.621895984E-2,1.518000476E-2,7.456844673E-3
4.927491409E0,-3.834948689E-2,1.091895066E-2,9.587371722E-3
4.930004534E0,-3.941474855E-2,1.198421419E-2,8.522108197E-3
4.932517607E0,-4.261054099E-2,1.198421419E-2,5.326317623E-3
4.935030679E0,-4.154527932E-2,1.624526829E-2,4.261054099E-3
4.937543804E0,-3.941474855E-2,1.731053181E-2,5.326317623E-3
4.940056877E0,-3.728422523E-2,1.624526829E-2,3.195790574E-3
4.942569950E0,-3.621895984E-2,1.624526829E-2,1.065263525E-3
4.945083075E0,-3.834948689E-2,1.518000476E-2,3.195790574E-3
4.947596148E0,-3.621895984E-2,1.837579533E-2,-1.065263525E-3
4.950109221E0,-3.195790574E-2,2.050632238E-2,1.065263525E-3
4.952622346E0,-2.769685164E-2,1.944105886E-2,2.130527049E-3
4.955135419E0,-2.130527049E-2,2.370211296E-2,2.130527049E-3
4.957648492E0,-2.130527049E-2,2.689790353E-2,1.065263525E-3
4.960161617E0,-1.810947992E-2,2.796316706E-2,-2.130527049E-3
4.962674690E0,-1.491368935E-2,2.689790353E-2,-3.195790574E-3
4.965187763E0,-9.587371722E-3,2.583264001E-2,-4.261054099E-3
4.967700888E0,-4.261054099E-3,2.583264001E-2,-3.195790574E-3
4.970213961E0,-5.326317623E-3,2.157158591E-2,-3.195790574E-3
4.972727034E0,-4.261054099E-3,2.263684943E-2,-2.130527049E-3
4.975240159E0,-3.195790574E-3,2.583264001E-2,-4.261054099E-3
4.977753232E0,1.065263525E-3,2.476737648E-2,-4.261054099E-3
4.980266304E0,-2.130527049E-3,2.263684943E-2,-2.130527049E-3
4.982779429E0,-1.065263525E-3,2.583264001E-2,-3.195790574E-3
4.985292502E0,-6.391581148E-3,2.476737648E-2,-6.391581148E-3
4.987805575E0,-5.326317623E-3,2.583264001E-2,-5.326317623E-3
4.990318700E0,-3.195790574E-3,2.583264001E-2,-6.391581148E-3
