"Time (s)","Acceleration x (m/s^2)","Acceleration y (m/s^2)","Acceleration z (m/s^2)"
1.722331300E-2,3.197963953E0,2.257139683E0,9.488490105E0
1.973628100E-2,4.399296284E0,1.163004875E0,9.835834503E0
2.224925000E-2,3.526743174E0,2.056518316E0,9.835834503E0
2.476221900E-2,2.826065779E0,2.520043373E0,9.232173920E0
2.727513500E-2,2.144552231E0,2.624845505E0,8.666841507E0
2.978810400E-2,1.586405635E0,2.820676088E0,8.585993767E0
3.230107300E-2,1.243253350E0,3.040461063E0,8.638095856E0
3.481404200E-2,1.138451219E0,3.059624910E0,8.628513336E0
3.732701000E-2,1.171388984E0,2.873376608E0,8.733315468E0
3.983997900E-2,1.304936886E0,2.711082935E0,8.823744774E0
4.235289600E-2,1.486394405E0,2.496088743E0,8.932739258E0
4.486586500E-2,1.729535460E0,2.247557640E0,8.994422913E0
4.737883300E-2,1.891829133E0,2.114009857E0,9.075270653E0
4.989180200E-2,1.829546690E0,2.190066338E0,9.122581482E0
5.240477100E-2,1.848710537E0,2.114009857E0,9.203428268E0
5.491774000E-2,1.929557920E0,2.037354469E0,9.227383614E0
5.743065600E-2,2.011004210E0,2.013399601E0,9.232173920E0
5.994362500E-2,2.091851711E0,2.013399601E0,9.303440094E0
6.245659400E-2,2.139761209E0,2.032563448E0,9.498072624E0
6.496956300E-2,2.091851711E0,2.094846010E0,9.554965019E0
6.748253100E-2,2.029569149E0,2.123591661E0,9.622038841E0
6.999544800E-2,1.987049460E0,2.170902491E0,9.612456322E0
7.250841700E-2,1.934348941E0,2.175693274E0,9.612456322E0
7.502138500E-2,1.877456307E0,2.151738644E0,9.635812759E0
7.753435400E-2,1.896620154E0,2.214020967E0,9.711869240E0
8.004732300E-2,1.839128613E0,2.156529665E0,9.750196457E0
8.256029200E-2,1.829546690E0,2.128382683E0,9.716659546E0
8.507320800E-2,1.791219115E0,2.099637032E0,9.783134460E0
8.758617700E-2,1.767863154E0,2.080473185E0,9.821461678E0
9.009914600E-2,1.791219115E0,2.032563448E0,9.797507286E0
9.261211500E-2,1.786428094E0,2.037354469E0,9.773552895E0
9.512508300E-2,1.729535460E0,2.056518316E0,9.745405197E0
9.763805200E-2,1.700789809E0,2.046936512E0,9.664558411E0
1.001509690E-1,1.657671094E0,2.066100359E0,9.654975891E0
1.026639380E-1,1.619942307E0,2.032563448E0,9.612456322E0
1.051769060E-1,1.619942307E0,2.085263968E0,9.564546585E0
1.076898750E-1,1.414530039E0,2.237975836E0,9.598083496E0
1.102028440E-1,1.381592274E0,2.170902491E0,9.536399841E0
1.127158130E-1,1.448066831E0,2.075682163E0,9.536399841E0
1.152287290E-1,1.552868962E0,2.032563448E0,9.522027016E0
1.177416980E-1,1.634315252E0,1.965490103E0,9.545982361E0
1.202546670E-1,1.700789809E0,1.875060797E0,9.550772667E0
1.227676350E-1,1.715162635E0,1.855896950E0,9.545982361E0
1.252806040E-1,1.719953537E0,1.908597589E0,9.522027016E0
1.277935210E-1,1.686416864E0,1.941535354E0,9.450761795E0
1.303064900E-1,1.652880192E0,1.927162528E0,9.474716187E0
1.328194580E-1,1.576823711E0,2.013399601E0,9.407643318E0
1.353324270E-1,1.543287039E0,2.018190622E0,9.384286880E0
1.378453960E-1,1.476812482E0,1.994235873E0,9.441180229E0
1.403583650E-1,1.424111962E0,1.960699201E0,9.465134621E0
1.428712810E-1,1.443275809E0,2.018190622E0,9.479507446E0
1.453842500E-1,1.395965099E0,1.946326375E0,9.512445450E0
1.478972190E-1,1.381592274E0,1.908597589E0,9.502862930E0
1.504101880E-1,1.362428427E0,1.913388491E0,9.578919411E0
1.529231560E-1,1.290564060E0,1.917580605E0,9.574129105E0
1.554361250E-1,1.224089503E0,1.899015665E0,9.598083496E0
1.579490420E-1,1.200134754E0,1.851106048E0,9.683721542E0
1.604620100E-1,1.180970907E0,1.803196430E0,9.669348717E0
1.629749790E-1,1.204925656E0,1.721750259E0,9.645394325E0
1.654879480E-1,1.200134754E0,1.721750259E0,9.707077980E0
1.680009170E-1,1.180970907E0,1.688812375E0,9.702286720E0
1.705138850E-1,1.166598082E0,1.645693779E0,9.707077980E0
1.730268020E-1,1.100123525E0,1.631320834E0,9.759778023E0
1.755397710E-1,1.080959678E0,1.621739030E0,9.802298546E0
1.780527400E-1,1.052213907E0,1.679230452E0,9.764569283E0
1.805657080E-1,9.474117756E-1,1.669648528E0,9.783134460E0
1.830786770E-1,9.090840816E-1,1.578620315E0,9.754987717E0
1.855916460E-1,9.330388904E-1,1.588202238E0,9.735823631E0
1.881045630E-1,8.474005461E-1,1.616948009E0,9.716659546E0
1.906175310E-1,8.474005461E-1,1.573829412E0,9.821461678E0
1.931305000E-1,7.947000265E-1,1.559456587E0,9.844818115E0
1.956434690E-1,7.947000265E-1,1.583411336E0,9.811880112E0
1.981564380E-1,7.186435461E-1,1.511546969E0,9.849609375E0
2.006693540E-1,7.042707205E-1,1.473818183E0,9.883145332E0
2.031823230E-1,6.898978353E-1,1.516337872E0,9.930456161E0
2.056952920E-1,6.234232783E-1,1.525919795E0,9.949620247E0
2.082082600E-1,5.323951244E-1,1.454654336E0,9.983157158E0
2.107212290E-1,4.611296058E-1,1.406744719E0,1.004484081E1
2.132341980E-1,5.138301253E-1,1.449863434E0,1.006340504E1
2.157471150E-1,5.138301253E-1,1.416326642E0,1.008736038E1
2.182600830E-1,4.515477121E-1,1.349253297E0,1.004004955E1
2.207730520E-1,4.467567503E-1,1.349253297E0,1.007777786E1
2.232860210E-1,4.563386738E-1,1.344462276E0,1.004484081E1
2.257989900E-1,3.611183763E-1,1.282179832E0,1.008256912E1
2.283119580E-1,3.802822232E-1,1.310925603E0,1.002567673E1
2.308248750E-1,3.515364826E-1,1.282179832E0,1.002088547E1
2.333378440E-1,2.563162148E-1,1.291761756E0,1.005921364E1
2.358508130E-1,2.515252531E-1,1.301343679E0,1.006819630E1
2.383637810E-1,2.084066272E-1,1.315716624E0,1.006819630E1
2.408767500E-1,2.084066272E-1,1.239660144E0,9.996931076E0
2.433897190E-1,1.652880162E-1,1.234869242E0,1.001130390E1
2.459026350E-1,1.419321001E-1,1.220496297E0,1.002088547E1
2.484156040E-1,1.467230618E-1,1.306134701E0,1.003525829E1
2.509285730E-1,1.131863594E-1,1.286970854E0,9.992139816E0
2.534415420E-1,2.754800394E-2,1.210914373E0,9.996931076E0
2.559545100E-1,1.796608977E-2,1.206123471E0,1.002567673E1
2.584674790E-1,3.653104603E-2,1.210914373E0,9.987947464E0
2.609803960E-1,1.317513175E-2,1.191750526E0,9.992139816E0
2.634933650E-1,3.593217814E-3,1.191750526E0,9.978365898E0
2.660063330E-1,3.593217814E-3,1.191750526E0,9.978365898E0
2.685193020E-1,-2.515252493E-2,1.215705395E0,9.963993073E0
2.710322710E-1,-2.515252493E-2,1.177377701E0,9.935247421E0
2.735451880E-1,-2.515252493E-2,1.129468083E0,9.992139816E0
2.760581560E-1,-3.473443910E-2,1.172586799E0,9.978365898E0
2.785711250E-1,-6.348018348E-2,1.158213854E0,9.959201813E0
2.810840940E-1,-2.515252493E-2,1.148631930E0,1.001130390E1
2.835970630E-1,-1.077965368E-2,1.163004875E0,9.925664902E0
2.861100310E-1,-3.952539712E-2,1.167795777E0,9.987947464E0
2.886229480E-1,-3.473443910E-2,1.172586799E0,9.902309418E0
2.911359170E-1,1.317513175E-2,1.215705395E0,9.826252937E0
2.936488850E-1,3.233896196E-2,1.215705395E0,9.849609375E0
2.961618540E-1,-3.473443910E-2,1.186959624E0,9.783134460E0
2.986748230E-1,5.569487438E-2,1.172586799E0,9.735823631E0
3.011877920E-1,5.090392008E-2,1.267807007E0,9.754987717E0
3.037007080E-1,3.653104603E-2,1.267807007E0,9.731032372E0
3.062136770E-1,3.233896196E-2,1.244451046E0,9.698095322E0
3.087266460E-1,2.275704592E-2,1.230078220E0,9.726242065E0
3.112396150E-1,9.881348908E-2,1.253434181E0,9.735823631E0
3.137525830E-1,1.323501915E-1,1.220496297E0,9.721450806E0
3.162655520E-1,1.467230618E-1,1.267807007E0,9.654975891E0
3.187784690E-1,1.700789779E-1,1.267807007E0,9.716659546E0
3.212914380E-1,2.036156803E-1,1.258225083E0,9.778343201E0
3.238044060E-1,2.940450013E-1,1.267807007E0,9.783134460E0
3.263173750E-1,3.707002997E-1,1.272598028E0,9.731032372E0
3.288303440E-1,3.659093380E-1,1.282179832E0,9.740614891E0
3.313433130E-1,3.802822232E-1,1.310925603E0,9.811880112E0
3.338562290E-1,4.132200480E-1,1.344462276E0,9.883145332E0
3.363691980E-1,4.084290862E-1,1.344462276E0,9.868772507E0
3.388821670E-1,4.419657886E-1,1.354044199E0,9.868772507E0
3.413951350E-1,5.371860862E-1,1.363626122E0,9.902309418E0
3.439081040E-1,5.515589118E-1,1.363626122E0,9.902309418E0
3.464210210E-1,5.850956440E-1,1.368417144E0,9.930456161E0
3.489339900E-1,5.755137205E-1,1.354044199E0,9.973574638E0
3.514469580E-1,6.042594910E-1,1.373208046E0,1.000651264E1
3.539599270E-1,5.946775675E-1,1.368417144E0,1.003046799E1
3.564728960E-1,5.659317970E-1,1.392371893E0,1.000172138E1
3.589858650E-1,6.234232783E-1,1.397162914E0,9.978365898E0
3.614987810E-1,6.377961636E-1,1.406744719E0,1.002567673E1
3.640117500E-1,6.521690488E-1,1.445072412E0,1.000651264E1
3.665247190E-1,6.898978353E-1,1.416326642E0,1.005442238E1
3.690376880E-1,6.521690488E-1,1.382789969E0,9.959201813E0
3.715506560E-1,6.611520648E-1,1.411535740E0,1.006819630E1
3.740636250E-1,6.282142401E-1,1.397162914E0,1.003525829E1
3.765765420E-1,6.234232783E-1,1.416326642E0,9.992139816E0
3.790895100E-1,6.521690488E-1,1.411535740E0,9.987947464E0
3.816024790E-1,6.042594910E-1,1.435490489E0,9.973574638E0
3.841154480E-1,5.994685292E-1,1.430699587E0,9.959201813E0
3.866284170E-1,5.946775675E-1,1.469027162E0,9.963993073E0
3.891413850E-1,5.707227588E-1,1.454654336E0,9.996931076E0
3.916543020E-1,5.419770479E-1,1.421117663E0,9.892727852E0
3.941672710E-1,4.994572699E-1,1.406744719E0,9.897518158E0
3.966802400E-1,5.371860862E-1,1.397162914E0,9.883145332E0
3.991932080E-1,4.994572699E-1,1.425908566E0,9.963993073E0
4.017061770E-1,5.090391636E-1,1.454654336E0,9.911890984E0
4.042191460E-1,4.707115293E-1,1.469027162E0,9.883145332E0
4.067320630E-1,4.850844145E-1,1.430699587E0,9.935247421E0
4.092450310E-1,4.802934527E-1,1.421117663E0,9.916083336E0
4.117580000E-1,4.563386738E-1,1.382789969E0,9.963993073E0
4.142709690E-1,4.275929332E-1,1.344462276E0,9.911890984E0
4.167839380E-1,4.563386738E-1,1.387580991E0,9.911890984E0
4.192968540E-1,4.323838651E-1,1.368417144E0,9.949620247E0
4.218098230E-1,3.850731850E-1,1.373208046E0,9.897518158E0
4.243227920E-1,3.467455208E-1,1.416326642E0,9.883145332E0
4.268357600E-1,3.754912615E-1,1.387580991E0,9.992139816E0
4.293487290E-1,3.371635973E-1,1.411535740E0,9.916083336E0
4.318616980E-1,3.084178567E-1,1.392371893E0,9.973574638E0
4.343746150E-1,3.179997802E-1,1.377999067E0,9.983157158E0
4.368875830E-1,3.036268950E-1,1.354044199E0,9.987947464E0
4.394005520E-1,2.275704592E-1,1.387580991E0,1.004004955E1
4.419135210E-1,2.467342913E-1,1.354044199E0,9.954411507E0
4.444264900E-1,2.227794975E-1,1.339671373E0,9.949620247E0
4.469394060E-1,2.323614210E-1,1.334880471E0,9.978365898E0
4.494524790E-1,2.131975889E-1,1.368417144E0,9.916083336E0
4.519655000E-1,1.844518483E-1,1.392371893E0,9.897518158E0
4.544785210E-1,2.179885507E-1,1.354044199E0,9.930456161E0
4.569915940E-1,1.275592297E-1,1.358835220E0,9.863982201E0
4.595046150E-1,1.131863594E-1,1.349253297E0,9.859190941E0
4.620176350E-1,1.275592297E-1,1.382789969E0,9.863982201E0
4.645306560E-1,8.444061875E-2,1.387580991E0,9.811880112E0
4.670437290E-1,7.006774843E-2,1.382789969E0,9.802298546E0
4.695567500E-1,7.964966446E-2,1.334880471E0,9.711869240E0
4.720697710E-1,5.569487438E-2,1.358835220E0,9.688512802E0
4.745827920E-1,4.132200405E-2,1.325298548E0,9.664558411E0
4.770958650E-1,3.233896196E-2,1.373208046E0,9.650185585E0
4.796088850E-1,-1.557061076E-2,1.411535740E0,9.631021500E0
4.821219060E-1,1.796608977E-2,1.387580991E0,9.607666016E0
4.846349790E-1,2.275704592E-2,1.397162914E0,9.583710670E0
4.871480000E-1,3.653104603E-2,1.430699587E0,9.498072624E0
4.896610210E-1,6.048583239E-2,1.430699587E0,9.522027016E0
4.921740420E-1,6.527678668E-2,1.401953816E0,9.483699799E0
4.946871150E-1,8.923157305E-2,1.392371893E0,9.502862930E0
4.972001350E-1,1.323501915E-1,1.435490489E0,9.488490105E0
4.997131560E-1,1.371411532E-1,1.449863434E0,9.455553055E0
5.022261770E-1,1.179773211E-1,1.464236259E0,9.469925880E0
5.047392500E-1,1.371411532E-1,1.454654336E0,9.483699799E0
5.072522710E-1,1.748699397E-1,1.454654336E0,9.488490105E0
5.097652920E-1,2.179885507E-1,1.445072412E0,9.517236710E0
5.122783130E-1,2.131975889E-1,1.464236259E0,9.502862930E0
5.147913850E-1,2.275704592E-1,1.440281510E0,9.488490105E0
5.173044060E-1,2.323614210E-1,1.478010297E0,9.526818275E0
5.198174270E-1,2.275704592E-1,1.454654336E0,9.536399841E0
5.223305000E-1,2.179885507E-1,1.449863434E0,9.602874756E0
5.248435210E-1,2.563162148E-1,1.473818183E0,9.626230240E0
5.273565420E-1,2.323614210E-1,1.482801199E0,9.645394325E0
5.298695630E-1,2.323614210E-1,1.469027162E0,9.650185585E0
5.323826350E-1,2.658981085E-1,1.430699587E0,9.626230240E0
5.348956560E-1,2.467342913E-1,1.454654336E0,9.626230240E0
5.374086770E-1,2.658981085E-1,1.445072412E0,9.669348717E0
5.399216980E-1,2.467342913E-1,1.421117663E0,9.716659546E0
5.424347710E-1,2.323614210E-1,1.430699587E0,9.698095322E0
5.449477920E-1,2.658981085E-1,1.469027162E0,9.726242065E0
5.474608130E-1,2.467342913E-1,1.425908566E0,9.674139977E0
5.499738850E-1,2.227794975E-1,1.425908566E0,9.669348717E0
5.524869060E-1,2.131975889E-1,1.425908566E0,9.764569283E0
5.549999270E-1,2.179885507E-1,1.445072412E0,9.735823631E0
5.575129480E-1,2.754800320E-1,1.421117663E0,9.740614891E0
5.600260210E-1,2.419433296E-1,1.421117663E0,9.716659546E0
5.625390420E-1,2.467342913E-1,1.440281510E0,9.716659546E0
5.650520630E-1,2.658981085E-1,1.464236259E0,9.750196457E0
5.675650830E-1,2.275704592E-1,1.401953816E0,9.711869240E0
5.700781560E-1,2.754800320E-1,1.435490489E0,9.769360542E0
5.725911770E-1,2.706890702E-1,1.473818183E0,9.797507286E0
5.751041980E-1,2.611071467E-1,1.416326642E0,9.769360542E0
5.776172710E-1,2.988359630E-1,1.401953816E0,9.783134460E0
5.801302920E-1,3.084178567E-1,1.406744719E0,9.797507286E0
5.826433130E-1,2.892540395E-1,1.406744719E0,9.783134460E0
5.851563330E-1,2.802709937E-1,1.382789969E0,9.807088852E0
5.876694060E-1,3.179997802E-1,1.377999067E0,9.778343201E0
5.901824270E-1,2.658981085E-1,1.421117663E0,9.811880112E0
5.926954480E-1,2.563162148E-1,1.425908566E0,9.863982201E0
5.952084690E-1,3.227907419E-1,1.492383122E0,9.783134460E0
5.977215420E-1,3.275817037E-1,1.449863434E0,9.759778023E0
6.002345630E-1,2.706890702E-1,1.482801199E0,9.750196457E0
6.027475830E-1,2.754800320E-1,1.449863434E0,9.783134460E0
6.052606560E-1,3.084178567E-1,1.382789969E0,9.773552895E0
6.077736770E-1,3.179997802E-1,1.382789969E0,9.797507286E0
6.102866980E-1,3.467455208E-1,1.449863434E0,9.844818115E0
6.127997190E-1,3.419545591E-1,1.430699587E0,9.859190941E0
6.153127920E-1,3.179997802E-1,1.430699587E0,9.792716026E0
6.178258130E-1,3.563274443E-1,1.406744719E0,9.844818115E0
6.203388330E-1,2.515252531E-1,1.445072412E0,9.735823631E0
6.228518540E-1,2.658981085E-1,1.421117663E0,9.716659546E0
6.253649270E-1,3.179997802E-1,1.445072412E0,9.778343201E0
6.278779480E-1,3.084178567E-1,1.459445357E0,9.831044197E0
6.303909690E-1,2.892540395E-1,1.363626122E0,9.826252937E0
6.329040420E-1,2.988359630E-1,1.406744719E0,9.787925720E0
6.354170630E-1,2.940450013E-1,1.435490489E0,9.783134460E0
6.379300830E-1,2.892540395E-1,1.430699587E0,9.769360542E0
6.404431040E-1,2.892540395E-1,1.473818183E0,9.731032372E0
6.429561770E-1,2.844630778E-1,1.492383122E0,9.721450806E0
6.454691980E-1,3.036268950E-1,1.473818183E0,9.674139977E0
6.479822190E-1,3.227907419E-1,1.449863434E0,9.698095322E0
6.504952400E-1,3.419545591E-1,1.454654336E0,9.622038841E0
6.530083130E-1,3.275817037E-1,1.473818183E0,9.598083496E0
6.555213330E-1,3.323726356E-1,1.482801199E0,9.626230240E0
6.580343540E-1,3.179997802E-1,1.459445357E0,9.612456322E0
6.605474270E-1,3.227907419E-1,1.511546969E0,9.612456322E0
6.630604480E-1,3.084178567E-1,1.521128893E0,9.554965019E0
6.655734690E-1,2.940450013E-1,1.554665565E0,9.517236710E0
6.680864900E-1,3.563274443E-1,1.497174144E0,9.545982361E0
6.705995630E-1,3.754912615E-1,1.459445357E0,9.512445450E0
6.731125830E-1,3.898641467E-1,1.506755948E0,9.526818275E0
6.756256040E-1,3.898641467E-1,1.506755948E0,9.512445450E0
6.781386250E-1,4.042370021E-1,1.511546969E0,9.526818275E0
6.806516980E-1,4.084290862E-1,1.511546969E0,9.507654190E0
6.831647190E-1,3.850731850E-1,1.492383122E0,9.569337845E0
6.856777400E-1,3.611183763E-1,1.549874663E0,9.588501930E0
6.881907600E-1,3.563274443E-1,1.549874663E0,9.664558411E0
6.907038330E-1,3.419545591E-1,1.535501719E0,9.664558411E0
6.932168540E-1,3.994460404E-1,1.540292740E0,9.654975891E0
6.957298750E-1,3.898641467E-1,1.540292740E0,9.721450806E0
6.982429480E-1,3.132088184E-1,1.516337872E0,9.721450806E0
7.007559690E-1,3.419545591E-1,1.506755948E0,9.740614891E0
7.032689900E-1,3.754912615E-1,1.564247489E0,9.716659546E0
7.057820100E-1,3.467455208E-1,1.535501719E0,9.807088852E0
7.082950830E-1,3.179997802E-1,1.501965046E0,9.868772507E0
7.108081040E-1,3.132088184E-1,1.506755948E0,9.807088852E0
7.133211250E-1,3.419545591E-1,1.511546969E0,9.902309418E0
7.158341460E-1,3.227907419E-1,1.564247489E0,9.902309418E0
7.183472190E-1,3.084178567E-1,1.573829412E0,9.902309418E0
7.208602400E-1,3.419545591E-1,1.564247489E0,9.878355026E0
7.233732600E-1,2.802709937E-1,1.583411336E0,9.868772507E0
7.258863330E-1,3.323726356E-1,1.545083642E0,9.959201813E0
7.283993540E-1,3.659093380E-1,1.559456587E0,9.883145332E0
7.309123750E-1,2.802709937E-1,1.549874663E0,9.887936592E0
7.334253960E-1,2.802709937E-1,1.535501719E0,9.916083336E0
7.359384690E-1,3.179997802E-1,1.506755948E0,9.878355026E0
7.384514900E-1,3.467455208E-1,1.530710816E0,9.840625763E0
7.409645100E-1,2.988359630E-1,1.554665565E0,9.835834503E0
7.434775310E-1,3.371635973E-1,1.525919795E0,9.863982201E0
7.459906040E-1,3.132088184E-1,1.573829412E0,9.854399681E0
7.485036250E-1,3.323726356E-1,1.545083642E0,9.849609375E0
7.510166460E-1,2.754800320E-1,1.554665565E0,9.840625763E0
7.535297190E-1,2.892540395E-1,1.554665565E0,9.802298546E0
7.560427400E-1,2.892540395E-1,1.559456587E0,9.802298546E0
7.585557600E-1,2.515252531E-1,1.521128893E0,9.787925720E0
7.610687810E-1,2.419433296E-1,1.511546969E0,9.759778023E0
7.635818540E-1,2.227794975E-1,1.559456587E0,9.811880112E0
7.660948750E-1,1.652880162E-1,1.559456587E0,9.735823631E0
7.686078960E-1,1.988247186E-1,1.535501719E0,9.698095322E0
7.711209170E-1,1.988247186E-1,1.525919795E0,9.721450806E0
7.736339900E-1,1.371411532E-1,1.492383122E0,9.754987717E0
7.761470100E-1,1.323501915E-1,1.521128893E0,9.740614891E0
7.786600310E-1,1.275592297E-1,1.535501719E0,9.678931236E0
7.811731040E-1,1.515140235E-1,1.516337872E0,9.645394325E0
7.836861250E-1,1.988247186E-1,1.545083642E0,9.674139977E0
7.861991460E-1,1.563049704E-1,1.549874663E0,9.659767151E0
7.887121670E-1,1.467230618E-1,1.607366085E0,9.517236710E0
7.912252400E-1,1.227682754E-1,1.559456587E0,9.526818275E0
7.937382600E-1,1.604970694E-1,1.540292740E0,9.493281364E0
7.962512810E-1,1.796608865E-1,1.540292740E0,9.522027016E0
7.987643020E-1,1.700789779E-1,1.545083642E0,9.469925880E0
8.012773750E-1,1.419321001E-1,1.559456587E0,9.445970535E0
8.037903960E-1,1.323501915E-1,1.554665565E0,9.407643318E0
8.063034170E-1,1.419321001E-1,1.583411336E0,9.374705315E0
8.088164900E-1,1.467230618E-1,1.588202238E0,9.345959663E0
8.113295100E-1,1.515140235E-1,1.573829412E0,9.393869400E0
8.138425310E-1,1.892428100E-1,1.583411336E0,9.379496574E0
8.163555520E-1,1.467230618E-1,1.592993259E0,9.365123749E0
8.188686250E-1,1.652880162E-1,1.612157106E0,9.336378098E0
8.213816460E-1,1.748699397E-1,1.583411336E0,9.336378098E0
8.238946670E-1,1.604970694E-1,1.554665565E0,9.317812920E0
8.264076880E-1,1.844518483E-1,1.612157106E0,9.345959663E0
8.289207600E-1,1.700789779E-1,1.626529932E0,9.350750923E0
8.314337810E-1,1.844518483E-1,1.626529932E0,9.384286880E0
8.339468020E-1,2.179885507E-1,1.607366085E0,9.384286880E0
8.364598750E-1,2.323614210E-1,1.597784162E0,9.398659706E0
8.389728960E-1,2.131975889E-1,1.588202238E0,9.450761795E0
8.414859170E-1,2.371523827E-1,1.578620315E0,9.422016144E0
8.439989380E-1,2.515252531E-1,1.564247489E0,9.450761795E0
8.465120100E-1,2.179885507E-1,1.592993259E0,9.526818275E0
8.490250310E-1,2.179885507E-1,1.578620315E0,9.526818275E0
8.515380520E-1,1.796608865E-1,1.525919795E0,9.564546585E0
8.540510730E-1,2.419433296E-1,1.549874663E0,9.569337845E0
8.565641460E-1,2.275704592E-1,1.545083642E0,9.522027016E0
8.590771670E-1,2.179885507E-1,1.549874663E0,9.526818275E0
8.615901880E-1,1.940337569E-1,1.530710816E0,9.488490105E0
8.641032080E-1,1.844518483E-1,1.545083642E0,9.541191101E0
8.666162810E-1,2.084066272E-1,1.506755948E0,9.622038841E0
8.691293020E-1,1.892428100E-1,1.559456587E0,9.526818275E0
8.716423230E-1,1.844518483E-1,1.545083642E0,9.536399841E0
8.741553960E-1,1.652880162E-1,1.521128893E0,9.526818275E0
8.766684170E-1,2.515252531E-1,1.516337872E0,9.545982361E0
8.791814380E-1,2.036156803E-1,1.506755948E0,9.564546585E0
8.816944580E-1,1.515140235E-1,1.588202238E0,9.526818275E0
8.842075310E-1,1.796608865E-1,1.569038391E0,9.507654190E0
8.867205520E-1,2.515252531E-1,1.588202238E0,9.488490105E0
8.892335730E-1,2.563162148E-1,1.573829412E0,9.474716187E0
8.917465940E-1,2.323614210E-1,1.607366085E0,9.441180229E0
8.942596670E-1,1.988247186E-1,1.621739030E0,9.412433624E0
8.967726880E-1,2.275704592E-1,1.645693779E0,9.441180229E0
8.992857080E-1,2.227794975E-1,1.631320834E0,9.502862930E0
9.017987810E-1,2.892540395E-1,1.631320834E0,9.469925880E0
9.043118020E-1,2.658981085E-1,1.631320834E0,9.465134621E0
9.068248230E-1,2.515252531E-1,1.631320834E0,9.465134621E0
9.093378440E-1,2.563162148E-1,1.645693779E0,9.474716187E0
9.118509170E-1,2.658981085E-1,1.669648528E0,9.479507446E0
9.143639380E-1,2.988359630E-1,1.684021473E0,9.522027016E0
9.168769580E-1,2.706890702E-1,1.674439549E0,9.559756279E0
9.193899790E-1,2.802709937E-1,1.707377315E0,9.531609535E0
9.219030520E-1,2.658981085E-1,1.721750259E0,9.498072624E0
9.244160730E-1,2.467342913E-1,1.726541162E0,9.593292236E0
9.269290940E-1,2.611071467E-1,1.684021473E0,9.559756279E0
9.294421670E-1,2.563162148E-1,1.679230452E0,9.559756279E0
9.319551880E-1,2.323614210E-1,1.674439549E0,9.536399841E0
9.344682080E-1,2.131975889E-1,1.707377315E0,9.578919411E0
9.369812290E-1,2.084066272E-1,1.707377315E0,9.640603065E0
9.394943020E-1,2.275704592E-1,1.716959238E0,9.659767151E0
9.420073230E-1,2.371523827E-1,1.712168336E0,9.626230240E0
9.445203440E-1,2.275704592E-1,1.674439549E0,9.578919411E0
9.470334170E-1,2.227794975E-1,1.740913987E0,9.635812759E0
9.495465420E-1,1.748699397E-1,1.688812375E0,9.631021500E0
9.520597190E-1,1.700789779E-1,1.697795391E0,9.612456322E0
9.545728440E-1,1.844518483E-1,1.693603277E0,9.650185585E0
9.570860210E-1,1.796608865E-1,1.716959238E0,9.669348717E0
9.595991460E-1,1.940337569E-1,1.726541162E0,9.650185585E0
9.621123230E-1,2.227794975E-1,1.688812375E0,9.688512802E0
9.646254480E-1,2.131975889E-1,1.693603277E0,9.693304062E0
9.671386250E-1,1.892428100E-1,1.688812375E0,9.698095322E0
9.696517500E-1,1.988247186E-1,1.684021473E0,9.702286720E0
9.721649270E-1,1.940337569E-1,1.669648528E0,9.659767151E0
9.746780520E-1,2.515252531E-1,1.640902758E0,9.683721542E0
9.771912290E-1,2.844630778E-1,1.669648528E0,9.716659546E0
9.797043540E-1,2.802709937E-1,1.655275702E0,9.716659546E0
9.822174790E-1,2.706890702E-1,1.674439549E0,9.669348717E0
9.847306560E-1,2.754800320E-1,1.684021473E0,9.631021500E0
9.872437810E-1,2.940450013E-1,1.669648528E0,9.688512802E0
9.897569580E-1,3.419545591E-1,1.674439549E0,9.745405197E0
9.922700830E-1,3.467455208E-1,1.702586412E0,9.664558411E0
9.947832600E-1,3.323726356E-1,1.674439549E0,9.654975891E0
9.972963850E-1,3.179997802E-1,1.669648528E0,9.740614891E0
9.998095630E-1,3.515364826E-1,1.674439549E0,9.674139977E0
1.002322688E0,3.898641467E-1,1.702586412E0,9.693304062E0
1.004835865E0,3.898641467E-1,1.655275702E0,9.769360542E0
1.007348990E0,4.042370021E-1,1.655275702E0,9.702286720E0
1.009862167E0,4.042370021E-1,1.669648528E0,9.750196457E0
1.012375292E0,4.084290862E-1,1.655275702E0,9.787925720E0
1.014888469E0,4.060336053E-1,1.677433848E0,9.675936699E0
1.017401594E0,4.060336053E-1,1.663061023E0,9.728038788E0
1.019914771E0,4.395703077E-1,1.677433848E0,9.766366005E0
1.022427896E0,4.443612695E-1,1.677433848E0,9.728038788E0
1.024941021E0,4.299883842E-1,1.682224751E0,9.713665962E0
1.027454198E0,4.251974523E-1,1.643897176E0,9.771157265E0
1.029967323E0,3.970505595E-1,1.672642946E0,9.742411613E0
1.032480500E0,4.347793460E-1,1.639106154E0,9.756784439E0
1.034993625E0,4.347793460E-1,1.672642946E0,9.714263916E0
1.037506802E0,4.539431930E-1,1.658270001E0,9.723247528E0
1.040019927E0,4.347793460E-1,1.653479099E0,9.695100784E0
1.042533104E0,4.108245671E-1,1.648688078E0,9.680727959E0
1.045046229E0,4.443612695E-1,1.605569482E0,9.675936699E0
1.047559406E0,4.491522312E-1,1.663061023E0,9.690309525E0
1.050072531E0,4.539431930E-1,1.658270001E0,9.714263916E0
1.052585708E0,4.443612695E-1,1.663061023E0,9.723247528E0
1.055098833E0,3.970505595E-1,1.653479099E0,9.699891090E0
1.057612010E0,4.443612695E-1,1.677433848E0,9.671145439E0
1.060125135E0,4.635250866E-1,1.648688078E0,9.642998695E0
1.062638313E0,4.539431930E-1,1.658270001E0,9.671145439E0
1.065151438E0,3.874686658E-1,1.663061023E0,9.619044304E0
1.067664563E0,3.922595978E-1,1.658270001E0,9.675936699E0
1.070177740E0,4.539431930E-1,1.672642946E0,9.714263916E0
1.072690865E0,4.299883842E-1,1.701388597E0,9.656772614E0
1.075204042E0,3.970505595E-1,1.648688078E0,9.652581215E0
1.077717167E0,4.114234447E-1,1.658270001E0,9.709473610E0
1.080230344E0,3.874686658E-1,1.667851925E0,9.732829094E0
1.082743469E0,3.491410017E-1,1.663061023E0,9.723846436E0
1.085256646E0,3.635138571E-1,1.658270001E0,9.737620354E0
1.087769771E0,3.730957806E-1,1.682224751E0,9.719055176E0
1.090282948E0,3.299771547E-1,1.687015772E0,9.751993179E0
1.092796073E0,3.251862228E-1,1.648688078E0,9.742411613E0
1.095309250E0,2.587116957E-1,1.648688078E0,9.719055176E0
1.097822375E0,3.539319634E-1,1.658270001E0,9.714263916E0
1.100335552E0,3.018302917E-1,1.639106154E0,9.699891090E0
1.102848677E0,2.730845511E-1,1.634315252E0,9.690309525E0
1.105361854E0,2.682935894E-1,1.619942307E0,9.751993179E0
1.107874979E0,2.970393300E-1,1.619942307E0,9.699891090E0
1.110388104E0,2.443388104E-1,1.653479099E0,9.685518265E0
1.112901281E0,2.587116957E-1,1.658270001E0,9.675936699E0
1.115414406E0,2.826664746E-1,1.643897176E0,9.675936699E0
1.117932767E0,2.491297722E-1,1.624733329E0,9.719055176E0
1.120445892E0,2.491297722E-1,1.667851925E0,9.719055176E0
1.122959069E0,2.395478487E-1,1.648688078E0,9.714263916E0
1.125472194E0,2.347569019E-1,1.610360503E0,9.766366005E0
1.127985372E0,2.155930698E-1,1.591196656E0,9.771157265E0
1.130498497E0,2.155930698E-1,1.605569482E0,9.771157265E0
1.133011674E0,2.299659401E-1,1.557659864E0,9.761574745E0
1.135524799E0,2.299659401E-1,1.567241788E0,9.742411613E0
1.138037976E0,1.970281154E-1,1.572032809E0,9.809484482E0
1.140551101E0,1.778642833E-1,1.552868962E0,9.832840919E0
1.143064278E0,1.587004513E-1,1.557659864E0,9.799902916E0
1.145577403E0,1.491185427E-1,1.572032809E0,9.766366005E0
1.148090580E0,1.682823747E-1,1.557659864E0,9.809484482E0
1.150603705E0,1.682823747E-1,1.557659864E0,9.908897400E0
1.153116830E0,1.251637489E-1,1.548078060E0,9.828049660E0
1.155630007E0,1.107908860E-1,1.548078060E0,9.885540962E0
1.158143132E0,1.395366192E-1,1.519332290E0,9.856795311E0
1.160656309E0,1.347456723E-1,1.548078060E0,9.852004051E0
1.163169434E0,1.299547106E-1,1.552868962E0,9.890332222E0
1.165682611E0,1.155818403E-1,1.548078060E0,9.847213745E0
1.168195736E0,1.059999242E-1,1.519332290E0,9.842422485E0
1.170708913E0,1.251637489E-1,1.528914213E0,9.814275742E0
1.173222038E0,1.012089700E-1,1.538496137E0,9.832840919E0
1.175735215E0,8.264400810E-2,1.557659864E0,9.775947571E0
1.178248340E0,1.059999242E-1,1.505558252E0,9.756784439E0
1.180761517E0,1.443275809E-1,1.557659864E0,9.780738831E0
1.183274642E0,1.587004513E-1,1.514541268E0,9.766366005E0
1.185787819E0,1.299547106E-1,1.548078060E0,9.751993179E0
1.188300944E0,1.107908860E-1,1.543287039E0,9.714263916E0
1.190814122E0,1.395366192E-1,1.524123192E0,9.685518265E0
1.193327247E0,1.395366192E-1,1.552868962E0,9.676535606E0
1.195840424E0,1.347456723E-1,1.576823711E0,9.638208389E0
1.198353549E0,9.701687843E-2,1.528914213E0,9.623834610E0
1.200866674E0,1.065987945E-1,1.572032809E0,9.666954041E0
1.203379851E0,1.778642833E-1,1.562450886E0,9.647789955E0
1.205892976E0,1.634914130E-1,1.562450886E0,9.552569389E0
1.208406153E0,1.395366192E-1,1.528914213E0,9.534004211E0
1.210919278E0,1.922371536E-1,1.552868962E0,9.514841080E0
1.213432455E0,1.874461919E-1,1.595987558E0,9.529213905E0
1.215945580E0,1.970281154E-1,1.557659864E0,9.519631386E0
1.218458757E0,2.443388104E-1,1.533705115E0,9.529213905E0
1.220971882E0,2.491297722E-1,1.543287039E0,9.547778130E0
1.223485059E0,2.257738560E-1,1.567241788E0,9.500468254E0
1.225998184E0,2.587116957E-1,1.557659864E0,9.505258560E0
1.228511361E0,2.970393300E-1,1.586405635E0,9.534004211E0
1.231024486E0,2.970393300E-1,1.567241788E0,9.557360649E0
1.233537663E0,3.114122152E-1,1.538496137E0,9.586106300E0
1.236050788E0,3.593217731E-1,1.562450886E0,9.638208389E0
1.238563965E0,3.305760324E-1,1.509750366E0,9.652581215E0
1.241077090E0,2.922483683E-1,1.552868962E0,9.647789955E0
1.243590215E0,3.114122152E-1,1.533705115E0,9.642998695E0
1.246103392E0,3.593217731E-1,1.543287039E0,9.695100784E0
1.248616517E0,2.970393300E-1,1.538496137E0,9.723846436E0
1.251129694E0,2.970393300E-1,1.572032809E0,9.719055176E0
1.253642819E0,3.209941387E-1,1.576823711E0,9.657371521E0
1.256155997E0,2.874574363E-1,1.562450886E0,9.671744347E0
1.258669122E0,3.162031770E-1,1.581614733E0,9.728637695E0
1.261182299E0,2.874574363E-1,1.567241788E0,9.733428001E0
1.263695424E0,2.922483683E-1,1.528914213E0,9.733428001E0
1.266208601E0,3.209941387E-1,1.509750366E0,9.771157265E0
1.268721726E0,2.922483683E-1,1.519332290E0,9.709473610E0
1.271234903E0,3.066212535E-1,1.557659864E0,9.747800827E0
1.273748028E0,3.114122152E-1,1.509750366E0,9.762173653E0
1.276261205E0,2.922483683E-1,1.538496137E0,9.738219261E0
1.278774330E0,3.114122152E-1,1.557659864E0,9.762173653E0
1.281287507E0,3.401579559E-1,1.495377421E0,9.738219261E0
1.283800632E0,2.778755128E-1,1.524123192E0,9.780738831E0
1.286313757E0,3.066212535E-1,1.538496137E0,9.757383347E0
1.288826934E0,3.353669941E-1,1.509750366E0,9.833439827E0
1.291340059E0,3.305760324E-1,1.509750366E0,9.771756172E0
1.293853236E0,3.066212535E-1,1.514541268E0,9.747800827E0
1.296366361E0,3.162031770E-1,1.514541268E0,9.790320396E0
1.298879538E0,3.832765818E-1,1.562450886E0,9.838230133E0
1.301392663E0,3.880675137E-1,1.595987558E0,9.790320396E0
1.303905840E0,3.832765818E-1,1.557659864E0,9.809484482E0
1.306418965E0,4.114234447E-1,1.562450886E0,9.819067001E0
1.308932142E0,3.449489176E-1,1.538496137E0,9.799902916E0
1.311445267E0,3.736946583E-1,1.557659864E0,9.799902916E0
1.313958444E0,3.736946583E-1,1.519332290E0,9.804693222E0
1.316471569E0,3.689036965E-1,1.576823711E0,9.828648567E0
1.318984747E0,3.689036965E-1,1.562450886E0,9.814275742E0
1.321497872E0,3.593217731E-1,1.543287039E0,9.828648567E0
1.324011049E0,3.784856200E-1,1.543287039E0,9.852602959E0
1.326524174E0,3.497398794E-1,1.543287039E0,9.838230133E0
1.329037299E0,3.545308113E-1,1.524123192E0,9.809484482E0
1.331550476E0,3.593217731E-1,1.543287039E0,9.823857307E0
1.334063601E0,3.353669941E-1,1.548078060E0,9.814275742E0
1.336576778E0,3.401579559E-1,1.567241788E0,9.757383347E0
1.339089903E0,3.162031770E-1,1.552868962E0,9.771756172E0
1.341603080E0,2.784743905E-1,1.557659864E0,9.776546478E0
1.344116205E0,3.162031770E-1,1.485795617E0,9.771756172E0
1.346629382E0,2.832653522E-1,1.548078060E0,9.757383347E0
1.349142507E0,2.832653522E-1,1.538496137E0,9.766964912E0
1.351655684E0,3.257850707E-1,1.538496137E0,9.728637695E0
1.354168809E0,3.353669941E-1,1.538496137E0,9.743010521E0
1.356681986E0,3.545308113E-1,1.500168443E0,9.733428001E0
1.359195111E0,3.353669941E-1,1.495377421E0,9.710072517E0
1.361708288E0,3.257850707E-1,1.519332290E0,9.762173653E0
1.364221413E0,3.114122152E-1,1.548078060E0,9.671744347E0
1.366734590E0,3.209941387E-1,1.485795617E0,9.676535606E0
1.369247715E0,3.257850707E-1,1.519332290E0,9.695699692E0
1.371760840E0,3.209941387E-1,1.528914213E0,9.695699692E0
1.374274017E0,3.209941387E-1,1.500168443E0,9.652581215E0
1.376787142E0,3.209941387E-1,1.533705115E0,9.643597603E0
1.379300319E0,3.209941387E-1,1.504959345E0,9.666954041E0
1.381813444E0,3.024291694E-1,1.514541268E0,9.690908432E0
1.384326622E0,3.024291694E-1,1.543287039E0,9.643597603E0
1.386839747E0,3.593217731E-1,1.543287039E0,9.662162781E0
1.389352924E0,3.497398794E-1,1.519332290E0,9.648388863E0
1.391866049E0,3.976494372E-1,1.528914213E0,9.681326866E0
1.394379226E0,3.168020248E-1,1.543287039E0,9.676535606E0
1.396892351E0,3.305760324E-1,1.557659864E0,9.648388863E0
1.399405528E0,3.545308113E-1,1.528914213E0,9.705281258E0
1.401918653E0,3.353669941E-1,1.509750366E0,9.686117172E0
1.404431830E0,3.072201312E-1,1.548078060E0,9.662162781E0
1.406944955E0,3.168020248E-1,1.543287039E0,9.686117172E0
1.409458132E0,3.593217731E-1,1.528914213E0,9.695699692E0
1.411971257E0,3.215929866E-1,1.552868962E0,9.724445343E0
1.414484382E0,3.215929866E-1,1.567241788E0,9.690908432E0
1.416997559E0,3.497398794E-1,1.543287039E0,9.662162781E0
1.419510684E0,3.215929866E-1,1.548078060E0,9.705281258E0
1.422023861E0,3.449489176E-1,1.572032809E0,9.666954041E0
1.424536986E0,3.263839483E-1,1.552868962E0,9.700489998E0
1.427050163E0,2.928472459E-1,1.528914213E0,9.662162781E0
1.429563288E0,3.215929866E-1,1.509750366E0,9.676535606E0
1.432076465E0,2.928472459E-1,1.552868962E0,9.662162781E0
1.434589590E0,2.641015053E-1,1.562450886E0,9.690908432E0
1.437102767E0,3.120110929E-1,1.524123192E0,9.743010521E0
1.439615892E0,3.120110929E-1,1.576823711E0,9.681326866E0
1.442129069E0,2.688924670E-1,1.585806847E0,9.634016037E0
1.444642194E0,2.736834288E-1,1.572032809E0,9.638806343E0
1.447155215E0,2.593105435E-1,1.614552498E0,9.671744347E0
1.449668184E0,2.736834288E-1,1.576823711E0,9.638806343E0
1.452181101E0,3.215929866E-1,1.604970574E0,9.634016037E0
1.454694017E0,3.311749101E-1,1.604970574E0,9.610060692E0
1.457206934E0,2.976382077E-1,1.600179672E0,9.591496468E0
1.459719903E0,3.168020248E-1,1.590597749E0,9.557959557E0
1.462232819E0,3.641127348E-1,1.581015825E0,9.534004211E0
1.464745736E0,3.641127348E-1,1.567241788E0,9.562750816E0
1.467258705E0,3.455477655E-1,1.590597749E0,9.596286774E0
1.469771622E0,3.641127348E-1,1.600179672E0,9.577123642E0
1.472284538E0,3.407568336E-1,1.624134421E0,9.553168297E0
1.474797455E0,3.503387272E-1,1.614552498E0,9.605270386E0
1.477310424E0,3.311749101E-1,1.609761596E0,9.581913948E0
1.479823340E0,3.311749101E-1,1.638507366E0,9.562750816E0
1.482336257E0,3.024291694E-1,1.667253017E0,9.601078033E0
1.484849226E0,3.215929866E-1,1.600179672E0,9.605270386E0
1.487362142E0,3.215929866E-1,1.609761596E0,9.614851952E0
1.489875059E0,2.784743905E-1,1.624134421E0,9.634016037E0
1.492388028E0,2.784743905E-1,1.633716345E0,9.638806343E0
1.494900944E0,2.641015053E-1,1.672044039E0,9.657970428E0
1.497413861E0,2.784743905E-1,1.604970574E0,9.634016037E0
1.499926778E0,2.928472459E-1,1.566643000E0,9.629224777E0
1.502439747E0,2.407455891E-1,1.614552498E0,9.610060692E0
1.504952663E0,2.407455891E-1,1.628925443E0,9.643597603E0
1.507465580E0,2.503274977E-1,1.604970574E0,9.648388863E0
1.509978549E0,2.167908102E-1,1.628925443E0,9.638806343E0
1.512491465E0,2.072088867E-1,1.614552498E0,9.648388863E0
1.515004382E0,1.784631461E-1,1.624134421E0,9.638806343E0
1.517517299E0,2.263727188E-1,1.585806847E0,9.610060692E0
1.520030267E0,2.167908102E-1,1.600179672E0,9.601078033E0
1.522543184E0,1.880450696E-1,1.571433902E0,9.634016037E0
1.525056101E0,1.928360164E-1,1.547479153E0,9.581913948E0
1.527569069E0,2.359546423E-1,1.581015825E0,9.662761688E0
1.530081986E0,2.928472459E-1,1.600179672E0,9.657970428E0
1.532594903E0,2.503274977E-1,1.590597749E0,9.629224777E0
1.535107819E0,2.599094212E-1,1.595388651E0,9.653180122E0
1.537620788E0,2.359546423E-1,1.590597749E0,9.653180122E0
1.540133705E0,2.119998485E-1,1.590597749E0,9.700489998E0
1.542646622E0,2.407455891E-1,1.542688131E0,9.700489998E0
1.545159590E0,2.455365509E-1,1.557061076E0,9.690908432E0
1.547672507E0,1.976269782E-1,1.600179672E0,9.724445343E0
1.550185424E0,2.407455891E-1,1.600179672E0,9.695699692E0
1.552698392E0,2.119998485E-1,1.604970574E0,9.738818169E0
1.555211309E0,1.976269782E-1,1.600179672E0,9.776546478E0
1.557724226E0,2.024179399E-1,1.557061076E0,9.762772560E0
1.560237142E0,2.928472459E-1,1.595388651E0,9.800501823E0
1.562750111E0,2.599094212E-1,1.604970574E0,9.776546478E0
1.565263028E0,2.263727188E-1,1.619343519E0,9.814874649E0
1.567775944E0,2.311636806E-1,1.643298268E0,9.771756172E0
1.570288913E0,2.215817720E-1,1.624134421E0,9.814874649E0
1.572801830E0,2.838642001E-1,1.628925443E0,9.819664955E0
1.575314747E0,2.599094212E-1,1.624134421E0,9.805292130E0
1.577827663E0,2.742823064E-1,1.633716345E0,9.786128998E0
1.580340632E0,3.024291694E-1,1.619343519E0,9.776546478E0
1.582853549E0,2.886551619E-1,1.576224923E0,9.776546478E0
1.585366465E0,2.790732384E-1,1.590597749E0,9.738818169E0
1.587879434E0,2.886551619E-1,1.595388651E0,9.734026909E0
1.590392351E0,3.024291694E-1,1.614552498E0,9.729235649E0
1.592905267E0,3.072201312E-1,1.619343519E0,9.710072517E0
1.595418236E0,3.072201312E-1,1.628925443E0,9.691507339E0
1.597931153E0,3.120110929E-1,1.581015825E0,9.662761688E0
1.600444069E0,3.168020248E-1,1.619343519E0,9.662761688E0
1.602956986E0,3.168020248E-1,1.638507366E0,9.629224777E0
1.605469955E0,3.120110929E-1,1.590597749E0,9.705281258E0
1.607982872E0,3.030280471E-1,1.581015825E0,9.710072517E0
1.610495788E0,3.120110929E-1,1.571433902E0,9.729235649E0
1.613008757E0,2.551184595E-1,1.566643000E0,9.667552948E0
1.615521674E0,3.120110929E-1,1.604970574E0,9.729235649E0
1.618034590E0,2.982370853E-1,1.566643000E0,9.757982254E0
1.620547507E0,3.030280471E-1,1.576224923E0,9.772355080E0
1.623060476E0,2.982370853E-1,1.552270055E0,9.777145386E0
1.625573392E0,3.126099408E-1,1.542688131E0,9.819664955E0
1.628086309E0,3.030280471E-1,1.523524404E0,9.852602959E0
1.630599278E0,2.455365509E-1,1.590597749E0,9.777145386E0
1.633112194E0,2.886551619E-1,1.528315306E0,9.734026909E0
1.635625111E0,3.030280471E-1,1.523524404E0,9.810083389E0
1.638138028E0,2.790732384E-1,1.523524404E0,9.772355080E0
1.640650997E0,2.359546423E-1,1.528315306E0,9.762772560E0
1.643163913E0,2.790732384E-1,1.552270055E0,9.800501823E0
1.645676830E0,2.647003829E-1,1.542688131E0,9.762772560E0
1.648189799E0,2.407455891E-1,1.547479153E0,9.710671425E0
1.650702715E0,2.694913447E-1,1.537897229E0,9.701088905E0
1.653215632E0,2.359546423E-1,1.523524404E0,9.719654083E0
1.655728601E0,2.551184595E-1,1.542688131E0,9.729235649E0
1.658241517E0,2.359546423E-1,1.542688131E0,9.734026909E0
1.660754434E0,2.215817720E-1,1.557061076E0,9.714862823E0
1.663267351E0,2.790732384E-1,1.537897229E0,9.701088905E0
1.665780319E0,2.742823064E-1,1.513942480E0,9.753190994E0
1.668293236E0,2.359546423E-1,1.552270055E0,9.701088905E0
1.670806153E0,2.838642001E-1,1.561851978E0,9.691507339E0
1.673319122E0,2.647003829E-1,1.533106327E0,9.686716080E0
1.675832038E0,2.167908102E-1,1.528315306E0,9.715461731E0
1.678344955E0,2.407455891E-1,1.566643000E0,9.696298599E0
1.680857872E0,2.407455891E-1,1.537897229E0,9.701088905E0
1.683370840E0,2.742823064E-1,1.561851978E0,9.667552948E0
1.685883757E0,2.599094212E-1,1.528315306E0,9.657970428E0
1.688396674E0,2.694913447E-1,1.494778633E0,9.657970428E0
1.690909642E0,2.790732384E-1,1.566643000E0,9.615450859E0
1.693422559E0,2.694913447E-1,1.561851978E0,9.667552948E0
1.695935476E0,2.551184595E-1,1.552270055E0,9.691507339E0
1.698448444E0,2.263727188E-1,1.561851978E0,9.648987770E0
1.700961361E0,2.311636806E-1,1.590597749E0,9.681925774E0
1.703474278E0,2.599094212E-1,1.561851978E0,9.677134514E0
1.705987194E0,2.311636806E-1,1.557061076E0,9.743609428E0
1.708500163E0,2.125987262E-1,1.557061076E0,9.738818169E0
1.711013080E0,2.455365509E-1,1.561851978E0,9.701088905E0
1.713525997E0,2.838642001E-1,1.566643000E0,9.729235649E0
1.716038965E0,2.269715965E-1,1.571433902E0,9.677134514E0
1.718551882E0,2.886551619E-1,1.561851978E0,9.701088905E0
1.721064799E0,2.886551619E-1,1.561851978E0,9.715461731E0
1.723577715E0,2.742823064E-1,1.576224923E0,9.701088905E0
1.726090684E0,2.365535051E-1,1.571433902E0,9.677134514E0
1.728603601E0,2.694913447E-1,1.566643000E0,9.738818169E0
1.731116517E0,3.221918643E-1,1.547479153E0,9.686716080E0
1.733629486E0,2.790732384E-1,1.600179672E0,9.605869293E0
1.736142403E0,2.694913447E-1,1.604970574E0,9.710671425E0
1.738655319E0,3.174009025E-1,1.595388651E0,9.738818169E0
1.741168236E0,2.838642001E-1,1.600179672E0,9.753190994E0
1.743681205E0,2.742823064E-1,1.566643000E0,9.672343254E0
1.746194122E0,2.886551619E-1,1.619343519E0,9.662761688E0
1.748707038E0,3.126099408E-1,1.657072306E0,9.681925774E0
1.751220007E0,3.557285666E-1,1.604970574E0,9.686716080E0
1.753732924E0,3.269828260E-1,1.590597749E0,9.701088905E0
1.756245840E0,3.365647495E-1,1.652281284E0,9.720252991E0
1.758758809E0,3.365647495E-1,1.647490382E0,9.767563820E0
1.761271726E0,2.838642001E-1,1.609761596E0,9.715461731E0
1.763784642E0,3.126099408E-1,1.624134421E0,9.686716080E0
1.766297559E0,3.030280471E-1,1.652281284E0,9.720252991E0
1.768810528E0,2.886551619E-1,1.609761596E0,9.748399734E0
1.771323444E0,3.221918643E-1,1.614552498E0,9.753190994E0
1.773836361E0,2.742823064E-1,1.619343519E0,9.777145386E0
1.776349330E0,3.030280471E-1,1.619343519E0,9.725044250E0
1.778862247E0,3.317737877E-1,1.571433902E0,9.715461731E0
1.781375163E0,3.365647495E-1,1.528315306E0,9.725044250E0
1.783888080E0,3.605195284E-1,1.652281284E0,9.748399734E0
1.786401049E0,3.653104901E-1,1.595388651E0,9.725044250E0
1.788913965E0,3.461466432E-1,1.576224923E0,9.757982254E0
1.791426882E0,3.413556814E-1,1.618744612E0,9.734625816E0
1.793939851E0,3.557285666E-1,1.613953710E0,9.734625816E0
1.796452767E0,3.940562308E-1,1.604970574E0,9.757982254E0
1.798965684E0,3.892652690E-1,1.623535633E0,9.753190994E0
1.801478653E0,3.653104901E-1,1.633117437E0,9.767563820E0
1.803991569E0,3.653104901E-1,1.613953710E0,9.744207382E0
1.806504486E0,3.844743073E-1,1.666654229E0,9.767563820E0
1.809017403E0,4.174121320E-1,1.609162688E0,9.786727905E0
1.811530372E0,4.269940555E-1,1.566643000E0,9.796309471E0
1.814043288E0,3.940562308E-1,1.581015825E0,9.748998642E0
1.816556205E0,4.174121320E-1,1.623535633E0,9.739417076E0
1.819069174E0,3.892652690E-1,1.618744612E0,9.715461731E0
1.821582090E0,3.701014221E-1,1.599580765E0,9.729834557E0
1.824095007E0,3.557285666E-1,1.595388651E0,9.796309471E0
1.826607924E0,3.317737877E-1,1.604371786E0,9.767563820E0
1.829120892E0,3.317737877E-1,1.628326535E0,9.729834557E0
1.831633809E0,2.748811543E-1,1.604371786E0,9.725044250E0
1.834146726E0,2.844630778E-1,1.571433902E0,9.705880165E0
1.836659694E0,2.652992606E-1,1.599580765E0,9.725044250E0
1.839172611E0,2.509263754E-1,1.594789863E0,9.682524681E0
1.841685528E0,2.700901926E-1,1.599580765E0,9.644196510E0
1.844198444E0,2.125987262E-1,1.576224923E0,9.686716080E0
1.846711413E0,2.509263754E-1,1.604371786E0,9.682524681E0
1.849224330E0,2.173896730E-1,1.552270055E0,9.677733421E0
1.851737247E0,2.269715965E-1,1.585207939E0,9.634614944E0
1.854250215E0,2.461354136E-1,1.599580765E0,9.615450859E0
1.856763132E0,2.030168027E-1,1.599580765E0,9.672942162E0
1.859276049E0,1.886439323E-1,1.533106327E0,9.701088905E0
1.861789017E0,1.934348941E-1,1.589998841E0,9.687314987E0
1.864301934E0,1.652880162E-1,1.599580765E0,9.658569336E0
1.866814851E0,1.509151459E-1,1.594789863E0,9.629823685E0
1.869327767E0,1.652880162E-1,1.585207939E0,9.639405251E0
1.871840736E0,1.557061076E-1,1.580416918E0,9.677733421E0
1.874353653E0,1.700789779E-1,1.537897229E0,9.668151855E0
1.876866569E0,1.886439323E-1,1.518733382E0,9.682524681E0
1.879379538E0,1.700789779E-1,1.552270055E0,9.672942162E0
1.881892455E0,1.748699397E-1,1.475614786E0,9.687314987E0
1.884405372E0,1.461241841E-1,1.504360557E0,9.739417076E0
1.886918288E0,1.652880162E-1,1.518733382E0,9.758581161E0
1.889431257E0,1.652880162E-1,1.518733382E0,9.734625816E0
1.891944174E0,1.892428100E-1,1.575626016E0,9.729834557E0
1.894457090E0,1.892428100E-1,1.585207939E0,9.705880165E0
1.896970059E0,2.078077644E-1,1.570835114E0,9.692106247E0
1.899482976E0,2.030168027E-1,1.604371786E0,9.729834557E0
1.901995892E0,2.221806347E-1,1.566044092E0,9.663360596E0
1.904508861E0,2.173896730E-1,1.580416918E0,9.696897507E0
1.907021778E0,2.413444668E-1,1.594789863E0,9.677733421E0
1.909534694E0,2.700901926E-1,1.609162688E0,9.715461731E0
1.912047611E0,2.605082989E-1,1.542688131E0,9.715461731E0
1.914560580E0,2.221806347E-1,1.570835114E0,9.705880165E0
1.917073497E0,1.844518483E-1,1.589998841E0,9.677733421E0
1.919586413E0,1.988247186E-1,1.546880245E0,9.672942162E0
1.922099382E0,2.269715965E-1,1.585207939E0,9.620841026E0
1.924612299E0,2.317625433E-1,1.589998841E0,9.672942162E0
1.927125215E0,2.700901926E-1,1.604371786E0,9.705880165E0
1.929638132E0,2.509263754E-1,1.609162688E0,9.677733421E0
1.932151101E0,2.605082989E-1,1.618744612E0,9.720252991E0
1.934664017E0,2.173896730E-1,1.599580765E0,9.701687813E0
1.937176934E0,2.844630778E-1,1.618744612E0,9.648987770E0
1.939689903E0,2.365535051E-1,1.666654229E0,9.639405251E0
1.942202819E0,2.173896730E-1,1.623535633E0,9.644196510E0
1.944715736E0,1.844518483E-1,1.676236153E0,9.653778076E0
1.947228705E0,2.413444668E-1,1.676236153E0,9.644196510E0
1.949741726E0,3.275817037E-1,1.661863208E0,9.630422592E0
1.952254694E0,3.036268950E-1,1.676236153E0,9.630422592E0
1.954767715E0,2.748811543E-1,1.666654229E0,9.625631332E0
1.957280684E0,2.892540395E-1,1.666654229E0,9.568140030E0
1.959793705E0,2.844630778E-1,1.671445131E0,9.563947678E0
1.962306674E0,3.179997802E-1,1.657072306E0,9.577722549E0
1.964819694E0,2.988359630E-1,1.695399880E0,9.559157372E0
1.967332663E0,3.323726356E-1,1.671445131E0,9.525620461E0
1.969845632E0,3.653104901E-1,1.695399880E0,9.572931290E0
1.972358653E0,3.323726356E-1,1.685818076E0,9.559157372E0
1.974871622E0,3.371635973E-1,1.657072306E0,9.577722549E0
1.977384642E0,3.467455208E-1,1.652281284E0,9.592095375E0
1.979897611E0,3.605195284E-1,1.652281284E0,9.516038895E0
1.982410632E0,3.988471627E-1,1.671445131E0,9.563947678E0
1.984923601E0,3.796833456E-1,1.676236153E0,9.577722549E0
1.987436622E0,3.844743073E-1,1.647490382E0,9.572931290E0
1.989949590E0,3.467455208E-1,1.652281284E0,9.554366112E0
1.992462611E0,3.701014221E-1,1.657072306E0,9.630422592E0
1.994975580E0,3.084178567E-1,1.623535633E0,9.663360596E0
1.997488601E0,2.988359630E-1,1.633117437E0,9.682524681E0
2.000001569E0,3.132088184E-1,1.618744612E0,9.716060638E0
2.002514590E0,2.892540395E-1,1.580416918E0,9.716060638E0
2.005027559E0,2.748811543E-1,1.589998841E0,9.739417076E0
2.007540580E0,2.892540395E-1,1.551671267E0,9.720851898E0
2.010053549E0,2.605082989E-1,1.604371786E0,9.772953987E0
2.012566569E0,2.652992606E-1,1.561253190E0,9.744207382E0
2.015079538E0,2.263727188E-1,1.528914213E0,9.776546478E0
2.017592559E0,2.167908102E-1,1.547479153E0,9.795710564E0
2.020105528E0,2.455365509E-1,1.528914213E0,9.762173653E0
2.022618549E0,2.311636806E-1,1.504959345E0,9.771756172E0
2.025131517E0,1.832541078E-1,1.495377421E0,9.866975784E0
2.027644538E0,1.832541078E-1,1.557061076E0,9.810083389E0
2.030157507E0,2.119998485E-1,1.528315306E0,9.795710564E0
2.032670528E0,1.311524510E-1,1.457049847E0,9.790919304E0
2.035183497E0,1.263614893E-1,1.461840749E0,9.771756172E0
2.037696517E0,1.736721992E-1,1.481004596E0,9.766964912E0
2.040209486E0,1.976269782E-1,1.495377421E0,9.766964912E0
2.042722507E0,2.072088867E-1,1.466631770E0,9.753190994E0
2.045235476E0,1.688812375E-1,1.533106327E0,9.743609428E0
2.047748497E0,1.832541078E-1,1.537897229E0,9.738818169E0
2.050261465E0,1.784631461E-1,1.500168443E0,9.700489998E0
2.052774486E0,2.024179399E-1,1.457049847E0,9.677134514E0
2.055287455E0,1.736721992E-1,1.509750366E0,9.662761688E0
2.057800476E0,2.024179399E-1,1.537897229E0,9.638806343E0
2.060313444E0,1.551072299E-1,1.504959345E0,9.619643211E0
2.062826465E0,1.976269782E-1,1.528315306E0,9.672343254E0
2.065339434E0,1.736721992E-1,1.514541268E0,9.681925774E0
2.067852455E0,1.880450696E-1,1.514541268E0,9.620242119E0
2.070365424E0,1.640902758E-1,1.528315306E0,9.657970428E0
2.072878444E0,1.976269782E-1,1.571433902E0,9.667552948E0
2.075391413E0,2.263727188E-1,1.557061076E0,9.672343254E0
2.077904434E0,2.119998485E-1,1.513942480E0,9.648388863E0
2.080417403E0,2.024179399E-1,1.557061076E0,9.643597603E0
2.082930424E0,2.311636806E-1,1.561851978E0,9.672343254E0
2.085443392E0,2.119998485E-1,1.576224923E0,9.681925774E0
2.087956413E0,2.263727188E-1,1.581015825E0,9.672343254E0
2.090469382E0,2.407455891E-1,1.552270055E0,9.672343254E0
2.092982403E0,2.928472459E-1,1.600179672E0,9.672343254E0
2.095495372E0,2.886551619E-1,1.585806847E0,9.662761688E0
2.098008392E0,2.976382077E-1,1.619343519E0,9.719654083E0
2.100521361E0,3.168020248E-1,1.600179672E0,9.738818169E0
2.103034382E0,3.359658718E-1,1.657671094E0,9.748399734E0
2.105547351E0,2.647003829E-1,1.590597749E0,9.738818169E0
2.108060372E0,3.120110929E-1,1.624134421E0,9.767563820E0
2.110573340E0,3.407568336E-1,1.648089290E0,9.786128998E0
2.113086361E0,3.551296890E-1,1.571433902E0,9.662761688E0
2.115599330E0,3.455477655E-1,1.614552498E0,9.677134514E0
2.118112351E0,3.934573531E-1,1.633716345E0,9.738818169E0
2.120625319E0,4.030392766E-1,1.619343519E0,9.753190994E0
2.123138340E0,3.551296890E-1,1.624134421E0,9.786128998E0
2.125651309E0,4.222030938E-1,1.604970574E0,9.734026909E0
2.128164330E0,3.886663914E-1,1.648089290E0,9.753190994E0
2.130677299E0,3.934573531E-1,1.672044039E0,9.762772560E0
2.133190319E0,4.503499568E-1,1.681625962E0,9.710072517E0
2.135703288E0,4.222030938E-1,1.648089290E0,9.710072517E0
2.138216309E0,4.455589950E-1,1.643298268E0,9.662761688E0
2.140729278E0,4.551409185E-1,1.638507366E0,9.710072517E0
2.143242299E0,4.174121320E-1,1.662462115E0,9.743609428E0
2.145755267E0,4.551409185E-1,1.657671094E0,9.696298599E0
2.148268288E0,4.551409185E-1,1.633716345E0,9.677134514E0
2.150781257E0,4.455589950E-1,1.652880192E0,9.710072517E0
2.153294278E0,4.455589950E-1,1.648089290E0,9.719654083E0
2.155807247E0,4.407680631E-1,1.633716345E0,9.734026909E0
2.158320267E0,4.551409185E-1,1.691207886E0,9.705281258E0
2.160833236E0,4.838866591E-1,1.633716345E0,9.686716080E0
2.163346257E0,4.359771013E-1,1.585806847E0,9.714862823E0
2.165859226E0,4.455589950E-1,1.628925443E0,9.781337738E0
2.168372247E0,4.695138037E-1,1.628925443E0,9.819664955E0
2.170885215E0,4.030392766E-1,1.633716345E0,9.743609428E0
2.173398184E0,3.695025742E-1,1.648089290E0,9.753190994E0
2.175911205E0,4.078302085E-1,1.614552498E0,9.772355080E0
2.178424174E0,3.838754296E-1,1.624134421E0,9.719654083E0
2.180937194E0,3.982483149E-1,1.657671094E0,9.753190994E0
2.183450163E0,3.647116125E-1,1.638507366E0,9.786128998E0
2.185963184E0,3.455477655E-1,1.571433902E0,9.729235649E0
2.188476153E0,3.407568336E-1,1.624134421E0,9.790919304E0
2.190989174E0,2.742823064E-1,1.638507366E0,9.753190994E0
2.193502142E0,3.168020248E-1,1.614552498E0,9.729235649E0
2.196015163E0,3.030280471E-1,1.652880192E0,9.762772560E0
2.198528132E0,2.599094212E-1,1.652880192E0,9.734026909E0
2.201041153E0,2.934461236E-1,1.609761596E0,9.738818169E0
2.203554122E0,2.503274977E-1,1.600179672E0,9.714862823E0
2.206067142E0,2.215817720E-1,1.595388651E0,9.701088905E0
2.208580111E0,2.647003829E-1,1.557061076E0,9.729235649E0
2.211093132E0,2.455365509E-1,1.576224923E0,9.714862823E0
2.213606101E0,1.934348941E-1,1.590597749E0,9.710072517E0
2.216119122E0,2.215817720E-1,1.557061076E0,9.681925774E0
2.218632090E0,2.311636806E-1,1.595388651E0,9.701088905E0
2.221145111E0,2.551184595E-1,1.628925443E0,9.691507339E0
2.223658080E0,2.167908102E-1,1.614552498E0,9.662761688E0
2.226171101E0,2.311636806E-1,1.600179672E0,9.653180122E0
2.228684069E0,2.072088867E-1,1.590597749E0,9.686716080E0
2.231197090E0,1.503162831E-1,1.590597749E0,9.662761688E0
2.233710059E0,1.886439323E-1,1.633716345E0,9.662761688E0
2.236223080E0,1.790620238E-1,1.590597749E0,9.691507339E0
2.238736049E0,2.024179399E-1,1.590597749E0,9.672343254E0
2.241249069E0,1.934348941E-1,1.638507366E0,9.648388863E0
2.243762038E0,1.982258558E-1,1.648089290E0,9.615450859E0
2.246275059E0,2.072088867E-1,1.604970574E0,9.691507339E0
2.248788028E0,1.982258558E-1,1.633716345E0,9.705880165E0
2.251301049E0,2.215817720E-1,1.633716345E0,9.629823685E0
2.253814017E0,2.551184595E-1,1.581015825E0,9.662761688E0
2.256327038E0,2.215817720E-1,1.652880192E0,9.672343254E0
2.258840007E0,2.407455891E-1,1.643298268E0,9.667552948E0
2.261353028E0,2.167908102E-1,1.595388651E0,9.667552948E0
2.263865997E0,2.311636806E-1,1.657671094E0,9.634614944E0
2.266379017E0,2.934461236E-1,1.633716345E0,9.667552948E0
2.268891986E0,2.551184595E-1,1.614552498E0,9.601078033E0
2.271405007E0,2.407455891E-1,1.624134421E0,9.644196510E0
2.273917976E0,2.694913447E-1,1.685818076E0,9.625032425E0
2.276430997E0,3.269828260E-1,1.657671094E0,9.601078033E0
2.278943965E0,3.407568336E-1,1.628925443E0,9.648388863E0
2.281456986E0,3.126099408E-1,1.633716345E0,9.629823685E0
2.283969955E0,3.365647495E-1,1.652880192E0,9.639405251E0
2.286482976E0,3.365647495E-1,1.648089290E0,9.677134514E0
2.288995944E0,3.599206507E-1,1.681027055E0,9.734026909E0
2.291508965E0,3.365647495E-1,1.704981804E0,9.672343254E0
2.294021934E0,3.503387272E-1,1.700190902E0,9.657970428E0
2.296534955E0,3.790844679E-1,1.672044039E0,9.729235649E0
2.299047924E0,3.551296890E-1,1.672044039E0,9.681925774E0
2.301560944E0,3.599206507E-1,1.695399880E0,9.686716080E0
2.304073913E0,3.599206507E-1,1.667253017E0,9.720252991E0
2.306586934E0,3.838754296E-1,1.671445131E0,9.696298599E0
2.309099903E0,3.742935359E-1,1.676236153E0,9.686716080E0
2.311612924E0,4.030392766E-1,1.714563727E0,9.677134514E0
2.314125892E0,3.838754296E-1,1.685818076E0,9.662761688E0
2.316638913E0,3.838754296E-1,1.681027055E0,9.677134514E0
2.319151882E0,3.647116125E-1,1.690608978E0,9.691507339E0
2.321664903E0,3.647116125E-1,1.681027055E0,9.743609428E0
2.324177872E0,4.030392766E-1,1.704981804E0,9.691507339E0
2.326690892E0,3.461466432E-1,1.757682323E0,9.715461731E0
2.329203861E0,3.742935359E-1,1.676236153E0,9.729235649E0
2.331716882E0,4.174121320E-1,1.690608978E0,9.738818169E0
2.334229851E0,3.599206507E-1,1.700190902E0,9.743609428E0
2.336742872E0,3.551296890E-1,1.652880192E0,9.748399734E0
2.339255840E0,3.461466432E-1,1.728936672E0,9.701088905E0
2.341768861E0,3.695025742E-1,1.719354749E0,9.734026909E0
2.344281830E0,3.551296890E-1,1.714563727E0,9.734026909E0
2.346794851E0,3.413556814E-1,1.652880192E0,9.772355080E0
2.349307819E0,3.126099408E-1,1.628925443E0,9.810083389E0
2.351820840E0,2.982370853E-1,1.633716345E0,9.800501823E0
2.354333809E0,3.269828260E-1,1.638507366E0,9.767563820E0
2.356846830E0,3.221918643E-1,1.671445131E0,9.777145386E0
2.359359799E0,3.317737877E-1,1.619343519E0,9.791518211E0
2.361872819E0,2.934461236E-1,1.676236153E0,9.753190994E0
2.364385788E0,3.413556814E-1,1.657072306E0,9.777145386E0
2.366898809E0,3.413556814E-1,1.643298268E0,9.791518211E0
2.369411778E0,2.934461236E-1,1.595388651E0,9.762772560E0
2.371924799E0,3.509376049E-1,1.595388651E0,9.743609428E0
2.374437767E0,2.838642001E-1,1.566643000E0,9.725044250E0
2.376950788E0,3.126099408E-1,1.566643000E0,9.762772560E0
2.379463757E0,3.126099408E-1,1.628925443E0,9.738818169E0
2.381976726E0,2.982370853E-1,1.628925443E0,9.757982254E0
2.384489747E0,2.455365509E-1,1.581015825E0,9.757982254E0
2.387002715E0,2.365535051E-1,1.590597749E0,9.715461731E0
2.389515736E0,2.365535051E-1,1.614552498E0,9.710671425E0
2.392028705E0,2.503274977E-1,1.590597749E0,9.672343254E0
2.394541726E0,2.413444668E-1,1.590597749E0,9.681925774E0
2.397054694E0,2.317625433E-1,1.561851978E0,9.667552948E0
2.399567715E0,2.599094212E-1,1.614552498E0,9.667552948E0
2.402080684E0,1.934348941E-1,1.566643000E0,9.696298599E0
2.404593705E0,1.982258558E-1,1.552270055E0,9.653778076E0
2.407106674E0,1.838529855E-1,1.547479153E0,9.639405251E0
2.409619694E0,1.598981917E-1,1.581015825E0,9.653778076E0
2.412132663E0,1.742710620E-1,1.581015825E0,9.658569336E0
2.414645684E0,1.742710620E-1,1.595388651E0,9.658569336E0
2.417158653E0,2.503274977E-1,1.647490382E0,9.605869293E0
2.419671674E0,2.413444668E-1,1.552270055E0,9.596286774E0
2.422184642E0,2.221806347E-1,1.604970574E0,9.610659599E0
2.424697663E0,1.982258558E-1,1.628925443E0,9.644196510E0
2.427210632E0,2.365535051E-1,1.585806847E0,9.596286774E0
2.429723653E0,2.365535051E-1,1.624134421E0,9.605869293E0
2.432236622E0,2.790732384E-1,1.652281284E0,9.563348770E0
2.434749642E0,2.647003829E-1,1.642699361E0,9.568140030E0
2.437262611E0,2.461354136E-1,1.633117437E0,9.644196510E0
2.439775632E0,3.030280471E-1,1.676236153E0,9.605869293E0
2.442288601E0,3.126099408E-1,1.595388651E0,9.610659599E0
2.444801622E0,3.653104901E-1,1.642699361E0,9.601078033E0
2.447314590E0,3.365647495E-1,1.633117437E0,9.644196510E0
2.449827611E0,3.605195284E-1,1.666654229E0,9.667552948E0
2.452340632E0,3.653104901E-1,1.685818076E0,9.601078033E0
2.454853653E0,3.653104901E-1,1.652281284E0,9.605869293E0
2.457366674E0,3.748923838E-1,1.661863208E0,9.596286774E0
2.459879694E0,3.838754296E-1,1.647490382E0,9.696298599E0
2.462392715E0,3.701014221E-1,1.666654229E0,9.625032425E0
2.464905736E0,3.653104901E-1,1.685818076E0,9.663360596E0
2.467418757E0,3.838754296E-1,1.695399880E0,9.681925774E0
2.469931778E0,3.982483149E-1,1.676236153E0,9.653778076E0
2.472444799E0,4.078302085E-1,1.652281284E0,9.686716080E0
2.474957819E0,3.796833456E-1,1.676236153E0,9.681925774E0
2.477470840E0,4.461578727E-1,1.695399880E0,9.634614944E0
2.479983861E0,4.605307579E-1,1.681027055E0,9.605869293E0
2.482496882E0,4.269940555E-1,1.714563727E0,9.710671425E0
2.485009903E0,4.030392766E-1,1.724145651E0,9.668151855E0
2.487522924E0,4.413669109E-1,1.681027055E0,9.686716080E0
2.490035944E0,4.509488344E-1,1.690608978E0,9.620242119E0
2.492548965E0,4.461578727E-1,1.695399880E0,9.605869293E0
2.495061986E0,4.844855368E-1,1.690608978E0,9.644196510E0
2.497575007E0,4.844855368E-1,1.704981804E0,9.677134514E0
2.500088028E0,4.844855368E-1,1.695399880E0,9.639405251E0
2.502601049E0,4.844855368E-1,1.743309498E0,9.629823685E0
2.505114069E0,4.413669109E-1,1.762473345E0,9.681925774E0
2.507627090E0,4.844855368E-1,1.748100519E0,9.663360596E0
2.510140111E0,5.132312775E-1,1.786428094E0,9.644196510E0
2.512653132E0,4.988583922E-1,1.743309498E0,9.620242119E0
2.515166153E0,4.605307579E-1,1.724145651E0,9.668151855E0
2.517679174E0,4.605307579E-1,1.757682323E0,9.639405251E0
2.520192194E0,5.132312775E-1,1.752891421E0,9.625032425E0
2.522705215E0,4.749036133E-1,1.738518596E0,9.648987770E0
2.525218236E0,4.605307579E-1,1.704981804E0,9.677134514E0
2.527731257E0,4.461578727E-1,1.700190902E0,9.644196510E0
2.530244278E0,4.557397962E-1,1.733727574E0,9.605869293E0
2.532757299E0,4.557397962E-1,1.709772825E0,9.610659599E0
2.535270319E0,4.174121320E-1,1.724145651E0,9.582512856E0
2.537783340E0,3.940562308E-1,1.738518596E0,9.563348770E0
2.540296361E0,3.844743073E-1,1.762473345E0,9.568140030E0
2.542809382E0,3.796833456E-1,1.767264247E0,9.558558464E0
2.545322403E0,3.988471627E-1,1.738518596E0,9.605869293E0
2.547835424E0,4.174121320E-1,1.748100519E0,9.572931290E0
2.550348444E0,3.796833456E-1,1.743309498E0,9.563348770E0
2.552861465E0,3.844743073E-1,1.738518596E0,9.601676941E0
2.555374486E0,3.701014221E-1,1.776846170E0,9.539394379E0
2.557887507E0,3.605195284E-1,1.685818076E0,9.539394379E0
2.560400528E0,3.653104901E-1,1.704981804E0,9.544185638E0
2.562913497E0,3.461466432E-1,1.704981804E0,9.592095375E0
2.565426517E0,3.174009025E-1,1.695399880E0,9.587304115E0
2.567939538E0,3.892652690E-1,1.714563727E0,9.582512856E0
2.570452559E0,3.653104901E-1,1.762473345E0,9.610659599E0
2.572965580E0,3.365647495E-1,1.762473345E0,9.596885681E0
2.575478601E0,3.557285666E-1,1.743309498E0,9.601676941E0
2.577991622E0,3.701014221E-1,1.738518596E0,9.634614944E0
2.580504642E0,3.605195284E-1,1.743309498E0,9.596885681E0
2.583017663E0,3.605195284E-1,1.733727574E0,9.620242119E0
2.585530684E0,3.461466432E-1,1.728936672E0,9.629823685E0
2.588043705E0,2.982370853E-1,1.728936672E0,9.658569336E0
2.590556726E0,2.844630778E-1,1.762473345E0,9.710671425E0
2.593069747E0,3.413556814E-1,1.700190902E0,9.677733421E0
2.595582767E0,2.892540395E-1,1.661863208E0,9.672942162E0
2.598095788E0,3.413556814E-1,1.704981804E0,9.691507339E0
2.600608809E0,3.509376049E-1,1.661863208E0,9.739417076E0
2.603121830E0,3.269828260E-1,1.704981804E0,9.720252991E0
2.605634851E0,2.844630778E-1,1.700190902E0,9.777145386E0
2.608147872E0,3.078189790E-1,1.724145651E0,9.781936646E0
2.610660892E0,3.461466432E-1,1.690608978E0,9.753789902E0
2.613173913E0,2.982370853E-1,1.700190902E0,9.781936646E0
2.615686934E0,2.982370853E-1,1.671445131E0,9.872365952E0
2.618199955E0,3.509376049E-1,1.728936672E0,9.867574692E0
2.620712976E0,3.365647495E-1,1.724145651E0,9.848411560E0
2.623225997E0,3.078189790E-1,1.685818076E0,9.877157211E0
2.625739017E0,2.700901926E-1,1.685818076E0,9.938840866E0
2.628252038E0,3.317737877E-1,1.690608978E0,9.962795258E0
2.630765059E0,2.940450013E-1,1.757682323E0,9.986150742E0
2.633278080E0,2.940450013E-1,1.743309498E0,9.972376823E0
2.635791101E0,2.988359630E-1,1.748100519E0,1.010532665E1
2.638304122E0,2.988359630E-1,1.714563727E0,1.011490822E1
2.640817142E0,2.988359630E-1,1.724145651E0,1.012868214E1
2.643330163E0,3.174009025E-1,1.767264247E0,1.007658005E1
2.645843184E0,3.509376049E-1,1.714563727E0,1.007658005E1
2.648356205E0,3.557285666E-1,1.709772825E0,9.958003998E0
2.650869226E0,3.748923838E-1,1.704981804E0,1.000531483E1
2.653382247E0,3.509376049E-1,1.714563727E0,9.924468040E0
2.655895267E0,3.509376049E-1,1.714563727E0,9.929258347E0
2.658408288E0,3.509376049E-1,1.757682323E0,9.862784386E0
2.660921309E0,3.413556814E-1,1.743309498E0,9.805891037E0
2.663434330E0,3.036268950E-1,1.748100519E0,9.805891037E0
2.665947351E0,2.940450013E-1,1.776846170E0,9.758581161E0
2.668460372E0,2.509263754E-1,1.824156880E0,9.734625816E0
2.670973392E0,2.509263754E-1,1.804993033E0,9.653778076E0
2.673486413E0,2.365535051E-1,1.804993033E0,9.672942162E0
2.675999434E0,2.365535051E-1,1.781637192E0,9.611258507E0
2.678512455E0,2.269715965E-1,1.809784055E0,9.644196510E0
2.681025476E0,2.030168027E-1,1.795411110E0,9.616049767E0
2.683538497E0,2.221806347E-1,1.776846170E0,9.535202026E0
2.686051517E0,2.125987262E-1,1.800202131E0,9.544784546E0
2.688564538E0,2.461354136E-1,1.781637192E0,9.587304115E0
2.691077559E0,1.934348941E-1,1.781637192E0,9.516038895E0
2.693590580E0,2.461354136E-1,1.790620208E0,9.516038895E0
2.696103601E0,2.605082989E-1,1.838529825E0,9.572931290E0
2.698616622E0,2.221806347E-1,1.795411110E0,9.544784546E0
2.701129642E0,2.652992606E-1,1.824156880E0,9.482501984E0
2.703642663E0,3.084178567E-1,1.838529825E0,9.492083549E0
2.706155684E0,2.796721160E-1,1.838529825E0,9.482501984E0
2.708668705E0,2.748811543E-1,1.804993033E0,9.501666069E0
2.711181726E0,3.179997802E-1,1.795411110E0,9.496874809E0
2.713694747E0,3.221918643E-1,1.848111749E0,9.449563980E0
2.716207767E0,3.748923838E-1,1.833738804E0,9.482501984E0
2.718720788E0,3.269828260E-1,1.800202131E0,9.501666069E0
2.721233809E0,3.605195284E-1,1.852902651E0,9.478309631E0
2.723746830E0,3.940562308E-1,1.843320727E0,9.501666069E0
2.726259799E0,3.844743073E-1,1.886439323E0,9.520829201E0
2.728772819E0,4.275929332E-1,1.891230345E0,9.511247635E0
2.731285840E0,4.467567503E-1,1.852902651E0,9.487293243E0
2.733798861E0,4.132200480E-1,1.891230345E0,9.468728065E0
2.736311882E0,4.132200480E-1,1.891230345E0,9.482501984E0
2.738824903E0,4.228019714E-1,1.891230345E0,9.420818329E0
2.741337924E0,4.228019714E-1,1.900812268E0,9.378298759E0
2.743850944E0,3.940562308E-1,1.876857400E0,9.435191154E0
2.746363965E0,4.275929332E-1,1.905603170E0,9.392671585E0
2.748876986E0,4.557397962E-1,1.881648421E0,9.373507500E0
2.751390007E0,4.749036133E-1,1.924767017E0,9.359134674E0
2.753903028E0,4.988583922E-1,1.919975996E0,9.368716240E0
2.756416049E0,4.749036133E-1,1.934348941E0,9.430399895E0
2.758929069E0,4.749036133E-1,1.948721766E0,9.392671585E0
2.761442090E0,4.844855368E-1,1.924767017E0,9.397461891E0
2.763955111E0,4.988583922E-1,1.924767017E0,9.383089066E0
2.766468132E0,4.892764986E-1,1.948721766E0,9.316615105E0
2.768981153E0,4.796945751E-1,1.958303690E0,9.363925934E0
2.771494174E0,5.180222392E-1,1.915185094E0,9.302242279E0
2.774007194E0,4.940674603E-1,1.924767017E0,9.354343414E0
2.776520215E0,4.611296058E-1,1.981659651E0,9.326196671E0
2.779033236E0,4.563386738E-1,1.996032476E0,9.321405411E0
2.781546257E0,4.228019714E-1,1.963094711E0,9.344761848E0
2.784059278E0,4.180110097E-1,1.972676635E0,9.340569496E0
2.786572299E0,4.749036133E-1,1.972676635E0,9.392671585E0
2.789085319E0,5.371860862E-1,2.000823498E0,9.392671585E0
2.791598340E0,5.036493540E-1,2.000823498E0,9.373507500E0
2.794111361E0,5.276041627E-1,2.000823498E0,9.344761848E0
2.796624382E0,5.515589118E-1,2.019987345E0,9.387880325E0
2.799137403E0,5.850956440E-1,1.986450553E0,9.387880325E0
2.801650424E0,5.803046823E-1,2.000823498E0,9.430399895E0
2.804163444E0,5.755137205E-1,1.976868629E0,9.449563980E0
2.806676465E0,5.898866057E-1,1.963094711E0,9.368716240E0
2.809189486E0,5.803046823E-1,1.972077727E0,9.387880325E0
2.811702507E0,5.755137205E-1,2.005614519E0,9.407044411E0
2.814215528E0,5.850956440E-1,1.963094711E0,9.463936806E0
2.816728549E0,6.180334687E-1,1.986450553E0,9.454355240E0
2.819241569E0,5.898866057E-1,1.986450553E0,9.487891197E0
2.821754590E0,4.988583922E-1,1.948721766E0,9.554366112E0
2.824267611E0,5.323951244E-1,1.939139843E0,9.620841026E0
2.826780632E0,5.850956440E-1,1.981659651E0,9.620841026E0
2.829293653E0,4.611296058E-1,1.943930864E0,9.611258507E0
2.831806674E0,4.611296058E-1,1.915185094E0,9.644196510E0
2.834319694E0,4.419657886E-1,1.943930864E0,9.653778076E0
2.836832715E0,3.653104901E-1,1.972077727E0,9.715461731E0
2.839345736E0,3.892652690E-1,1.857693553E0,9.758581161E0
2.841858757E0,3.467455208E-1,1.843320727E0,9.772953987E0
2.844371778E0,3.515364826E-1,1.857693553E0,9.782535553E0
2.846884799E0,3.796833456E-1,1.919975996E0,9.796309471E0
2.849397819E0,3.179997802E-1,1.872066498E0,9.815473557E0
2.851910840E0,3.227907419E-1,1.819365978E0,9.834636688E0
2.854423861E0,3.132088184E-1,1.862484574E0,9.772953987E0
2.856936882E0,2.892540395E-1,1.867275476E0,9.844219208E0
2.859449903E0,2.700901926E-1,1.896021247E0,9.796309471E0
2.861962924E0,3.084178567E-1,1.872066498E0,9.787326813E0
2.864475944E0,3.179997802E-1,1.886439323E0,9.815473557E0
2.866988965E0,3.132088184E-1,1.867275476E0,9.782535553E0
2.869501986E0,3.084178567E-1,1.843320727E0,9.801100731E0
2.872015007E0,2.988359630E-1,1.886439323E0,9.782535553E0
2.874528028E0,2.844630778E-1,1.848111749E0,9.772953987E0
2.877041049E0,2.796721160E-1,1.852902651E0,9.782535553E0
2.879554069E0,2.892540395E-1,1.876857400E0,9.796309471E0
2.882067090E0,2.796721160E-1,1.872066498E0,9.801100731E0
2.884580111E0,2.509263754E-1,1.900812268E0,9.777744293E0
2.887093080E0,2.323614210E-1,1.862484574E0,9.734625816E0
2.889606101E0,1.892428100E-1,1.891230345E0,9.716060638E0
2.892119122E0,1.748699397E-1,1.915185094E0,9.772953987E0
2.894632142E0,2.227794975E-1,1.838529825E0,9.796309471E0
2.897145163E0,2.179885507E-1,1.843320727E0,9.772953987E0
2.899658184E0,1.461241841E-1,1.833738804E0,9.777744293E0
2.902171205E0,2.084066272E-1,1.843320727E0,9.763371468E0
2.904684226E0,2.036156803E-1,1.886439323E0,9.829846382E0
2.907197247E0,2.084066272E-1,1.872066498E0,9.792117119E0
2.909710267E0,2.371523827E-1,1.896021247E0,9.792117119E0
2.912223288E0,2.371523827E-1,1.867275476E0,9.768162727E0
2.914736309E0,1.892428100E-1,1.857693553E0,9.829846382E0
2.917249330E0,2.036156803E-1,1.905603170E0,9.858592033E0
2.919762351E0,2.988359630E-1,1.876857400E0,9.805891037E0
2.922275372E0,2.419433296E-1,1.924767017E0,9.834636688E0
2.924788392E0,2.700901926E-1,1.886439323E0,9.877157211E0
2.927301413E0,2.844630778E-1,1.886439323E0,9.896320343E0
2.929814434E0,2.940450013E-1,1.910394192E0,9.872365952E0
2.932327455E0,3.227907419E-1,1.891230345E0,9.891530037E0
2.934840476E0,2.796721160E-1,1.843320727E0,9.820263863E0
2.937353497E0,3.515364826E-1,1.843320727E0,9.953213692E0
2.939866517E0,3.467455208E-1,1.852902651E0,1.004364300E1
2.942379538E0,3.754912615E-1,1.886439323E0,1.001549625E1
2.944892559E0,3.611183763E-1,1.881648421E0,9.991540909E0
2.947405632E0,3.802822232E-1,1.886439323E0,9.981959343E0
2.949918705E0,3.802822232E-1,1.876857400E0,1.004364300E1
2.952431778E0,3.467455208E-1,1.857693553E0,9.996332169E0
2.954944903E0,4.371748269E-1,1.857693553E0,9.910693169E0
2.957457976E0,4.084290862E-1,1.857693553E0,1.001070499E1
2.959971101E0,3.844743073E-1,1.828947902E0,9.962795258E0
2.962484174E0,4.275929332E-1,1.828947902E0,9.953213692E0
2.964997247E0,4.275929332E-1,1.824156880E0,9.944230080E0
2.967510372E0,3.707002997E-1,1.848111749E0,9.925066948E0
2.970023444E0,4.180110097E-1,1.852902651E0,9.991540909E0
2.972536569E0,4.275929332E-1,1.938541055E0,1.003885174E1
2.975049642E0,3.515364826E-1,1.891230345E0,1.005801582E1
2.977562715E0,3.659093380E-1,1.876857400E0,9.981959343E0
2.980075840E0,3.988471627E-1,1.943331957E0,1.000591373E1
2.982588913E0,3.940562308E-1,1.972077727E0,1.000591373E1
2.985101986E0,4.036381245E-1,1.957704782E0,9.972376823E0
2.987615111E0,4.419657886E-1,1.952913880E0,9.891530037E0
2.990128184E0,4.515477121E-1,1.862484574E0,9.853800774E0
2.992641309E0,4.419657886E-1,1.833738804E0,9.881947517E0
2.995154382E0,4.611296058E-1,1.848111749E0,9.820263863E0
2.997667455E0,4.275929332E-1,1.809784055E0,9.730433464E0
3.000180580E0,4.180110097E-1,1.862484574E0,9.787326813E0
3.002693653E0,4.180110097E-1,1.919377208E0,9.787326813E0
3.005206778E0,4.180110097E-1,1.933750033E0,9.677733421E0
3.007719851E0,3.227907419E-1,1.933750033E0,9.611258507E0
3.010232924E0,3.132088184E-1,1.967286706E0,9.583111763E0
3.012746049E0,3.084178567E-1,1.976868629E0,9.525620461E0
3.015259122E0,3.383613527E-1,2.005015612E0,9.502862930E0
3.017772194E0,3.665082157E-1,1.995433569E0,9.450761795E0
3.020285319E0,3.671070933E-1,1.981060743E0,9.403450966E0
3.022798392E0,4.239996970E-1,2.000224590E0,9.389078140E0
3.025311517E0,3.952539563E-1,1.985851765E0,9.374705315E0
3.027824590E0,4.144177735E-1,2.014597416E0,9.341168404E0
3.030337663E0,3.952539563E-1,2.033761263E0,9.322603226E0
3.032850788E0,4.192087352E-1,2.057716131E0,9.289067268E0
3.035363861E0,4.383725822E-1,2.052925110E0,9.327394485E0
3.037876986E0,4.479544759E-1,2.052925110E0,9.345959663E0
3.040390059E0,4.479544759E-1,2.086461782E0,9.345959663E0
3.042903132E0,4.383725822E-1,2.086461782E0,9.236965179E0
3.045416257E0,4.239996970E-1,2.095444918E0,9.256129265E0
3.047929330E0,4.144177735E-1,2.128981590E0,9.256129265E0
3.050442403E0,4.192087352E-1,2.057716131E0,9.256129265E0
3.052955528E0,4.431635439E-1,2.100235701E0,9.289067268E0
3.055468601E0,4.527454376E-1,2.100235701E0,9.274694443E0
3.057981726E0,4.814911783E-1,2.100235701E0,9.256129265E0
3.060494799E0,4.719092846E-1,2.109817743E0,9.265710831E0
3.063007872E0,4.096268415E-1,2.062506914E0,9.279484749E0
3.065520997E0,4.048358798E-1,2.052925110E0,9.208219528E0
3.068034069E0,4.287906587E-1,2.085862875E0,9.269903183E0
3.070547194E0,4.527454376E-1,2.124190569E0,9.384286880E0
3.073060267E0,4.287906587E-1,2.085862875E0,9.441180229E0
3.075573340E0,4.287906587E-1,2.124190569E0,9.413032532E0
3.078086465E0,4.096268415E-1,2.076281071E0,9.450761795E0
3.080599538E0,4.000449181E-1,2.052925110E0,9.426807404E0
3.083112663E0,4.000449181E-1,2.090653896E0,9.336976051E0
3.085625736E0,4.431635439E-1,2.119399548E0,9.408242226E0
3.088138809E0,4.144177735E-1,2.076281071E0,9.445970535E0
3.090651934E0,4.239996970E-1,2.081072092E0,9.460343361E0
3.093165007E0,4.527454376E-1,2.081072092E0,9.493281364E0
3.095678080E0,4.335816205E-1,2.057716131E0,9.507654190E0
3.098191205E0,4.239996970E-1,2.095444918E0,9.493880272E0
3.100704278E0,4.479544759E-1,2.109817743E0,9.489089012E0
3.103217403E0,3.958528340E-1,2.085862875E0,9.498072624E0
3.105730476E0,3.814799488E-1,2.100235701E0,9.450761795E0
3.108243549E0,3.718980551E-1,2.109817743E0,9.469925880E0
3.110756674E0,3.671070933E-1,2.095444918E0,9.493880272E0
3.113269747E0,3.575251698E-1,2.038552284E0,9.431597710E0
3.115782872E0,3.575251698E-1,2.085862875E0,9.445970535E0
3.118295944E0,3.431523144E-1,2.114608765E0,9.536399841E0
3.120809017E0,3.766889870E-1,2.124190569E0,9.474716187E0
3.123322142E0,3.958528340E-1,2.052326202E0,9.474716187E0
3.125835215E0,4.006437957E-1,2.019388437E0,9.512445450E0
3.128348288E0,3.671070933E-1,2.061908245E0,9.526818275E0
3.130861413E0,3.766889870E-1,2.061908245E0,9.550772667E0
3.133374486E0,3.479432464E-1,2.071490049E0,9.569936752E0
3.135887611E0,3.527342081E-1,2.105026722E0,9.507654190E0
3.138400684E0,3.814799488E-1,2.081072092E0,9.512445450E0
3.140913757E0,3.239884675E-1,2.043343306E0,9.565145493E0
3.143426882E0,3.431523144E-1,2.042744398E0,9.583710670E0
3.145939955E0,3.575251698E-1,2.014597416E0,9.622038841E0
3.148453080E0,3.144065440E-1,2.047535181E0,9.598083496E0
3.150966153E0,3.479432464E-1,2.061908245E0,9.574728012E0
3.153479226E0,3.671070933E-1,2.033761263E0,9.659767151E0
3.155992351E0,3.623161316E-1,2.066699028E0,9.598083496E0
3.158505424E0,3.575251698E-1,2.057117224E0,9.602874756E0
3.161018497E0,3.287794292E-1,2.090653896E0,9.612456322E0
3.163531622E0,3.623161316E-1,2.095444918E0,9.626829147E0
3.166044694E0,3.431523144E-1,2.052326202E0,9.641201973E0
3.168557819E0,3.527342081E-1,2.066699028E0,9.636411667E0
3.171070892E0,3.671070933E-1,2.028371572E0,9.669348717E0
3.173583965E0,3.383613527E-1,2.066699028E0,9.617247581E0
3.176097090E0,3.623161316E-1,2.052326202E0,9.636411667E0
3.178610163E0,3.383613527E-1,2.057117224E0,9.626829147E0
3.181123288E0,3.102144599E-1,2.037953377E0,9.617247581E0
3.183636361E0,3.575251698E-1,2.066699028E0,9.617247581E0
3.186149434E0,3.197963834E-1,2.081072092E0,9.645993233E0
3.188662559E0,3.287794292E-1,2.033162355E0,9.612456322E0
3.191175632E0,3.527342081E-1,2.057117224E0,9.636411667E0
3.193688705E0,3.383613527E-1,2.042744398E0,9.626829147E0
3.196201830E0,3.479432464E-1,2.000224590E0,9.650784492E0
3.198714903E0,3.245873451E-1,2.037953377E0,9.641201973E0
3.201228028E0,3.287794292E-1,2.033162355E0,9.607666016E0
3.203741101E0,3.197963834E-1,2.052326202E0,9.664558411E0
3.206254174E0,3.197963834E-1,2.076281071E0,9.589100838E0
3.208767299E0,3.293783069E-1,2.061908245E0,9.589100838E0
3.211280372E0,3.245873451E-1,2.037953377E0,9.622038841E0
3.213793497E0,3.054235280E-1,2.057117224E0,9.622038841E0
3.216306569E0,3.245873451E-1,2.047535181E0,9.593292236E0
3.218819642E0,3.479432464E-1,2.028371572E0,9.569936752E0
3.221332767E0,3.054235280E-1,2.009207726E0,9.593891144E0
3.223845840E0,2.910506427E-1,2.052326202E0,9.589100838E0
3.226358913E0,2.766777575E-1,2.037953377E0,9.584309578E0
3.228872038E0,3.102144599E-1,2.057117224E0,9.617247581E0
3.231385111E0,3.389602005E-1,2.009207726E0,9.526818275E0
3.233898236E0,3.245873451E-1,2.037953377E0,9.484298706E0
3.236411309E0,3.389602005E-1,2.028371572E0,9.589100838E0
3.238924382E0,3.150054216E-1,2.004416704E0,9.531609535E0
3.241437507E0,3.245873451E-1,2.037953377E0,9.560355186E0
3.243950580E0,3.389602005E-1,2.028371572E0,9.545982361E0
3.246463705E0,3.485421240E-1,2.009207726E0,9.550772667E0
3.248976778E0,3.389602005E-1,1.990043759E0,9.527417183E0
3.251489851E0,3.718980551E-1,2.037953377E0,9.508253098E0
3.254002976E0,3.910618722E-1,2.018789530E0,9.579518318E0
3.256516049E0,3.533330858E-1,1.990043759E0,9.598682404E0
3.259029122E0,3.575251698E-1,1.999625683E0,9.550772667E0
3.261542247E0,3.862709105E-1,2.009207726E0,9.602874756E0
3.264055319E0,4.245985746E-1,2.018789530E0,9.589100838E0
3.266568444E0,4.102256894E-1,1.985252857E0,9.579518318E0
3.269081517E0,4.150166512E-1,2.028371572E0,9.565145493E0
3.271594590E0,3.814799488E-1,2.013998508E0,9.622038841E0
3.274107715E0,3.718980551E-1,2.009207726E0,9.641201973E0
3.276620788E0,4.054347575E-1,2.023580551E0,9.631620407E0
3.279133913E0,4.054347575E-1,1.990043759E0,9.589100838E0
3.281646986E0,4.054347575E-1,1.999625683E0,9.584309578E0
3.284160059E0,4.102256894E-1,2.004416704E0,9.603473663E0
3.286673184E0,4.293895364E-1,2.018789530E0,9.603473663E0
3.289186257E0,4.150166512E-1,1.990043759E0,9.608263969E0
3.291699330E0,4.293895364E-1,1.961896896E0,9.626829147E0
3.294212455E0,4.150166512E-1,1.999625683E0,9.603473663E0
3.296725528E0,4.198076129E-1,1.966089010E0,9.565145493E0
3.299238653E0,3.814799488E-1,1.990043759E0,9.589100838E0
3.301751726E0,4.198076129E-1,1.980461836E0,9.617247581E0
3.304264799E0,4.245985746E-1,1.999625683E0,9.560355186E0
3.306777924E0,4.102256894E-1,1.999625683E0,9.584309578E0
3.309290997E0,4.533443153E-1,1.990043759E0,9.589100838E0
3.311804122E0,4.245985746E-1,1.985252857E0,9.574728012E0
3.314317194E0,3.958528340E-1,1.994834781E0,9.560355186E0
3.316830267E0,4.150166512E-1,2.018789530E0,9.584309578E0
3.319343392E0,4.198076129E-1,2.004416704E0,9.555563927E0
3.321856465E0,4.054347575E-1,1.994834781E0,9.532208443E0
3.324369590E0,4.293895364E-1,1.946925163E0,9.560355186E0
3.326882663E0,4.389714301E-1,1.975670934E0,9.589100838E0
3.329395736E0,4.054347575E-1,1.961298108E0,9.527417183E0
3.331908861E0,4.341804981E-1,1.975670934E0,9.541790009E0
3.334421934E0,4.198076129E-1,1.985252857E0,9.569936752E0
3.336935007E0,4.150166512E-1,1.994834781E0,9.565145493E0
3.339448132E0,4.485533535E-1,1.999625683E0,9.589100838E0
3.341961205E0,4.581352770E-1,1.975670934E0,9.608263969E0
3.344474330E0,4.485533535E-1,1.966089010E0,9.574728012E0
3.346987403E0,4.341804981E-1,1.961298108E0,9.569936752E0
3.349500476E0,4.677171707E-1,1.994834781E0,9.532208443E0
3.352013601E0,4.150166512E-1,2.004416704E0,9.579518318E0
3.354526674E0,4.198076129E-1,1.951716185E0,9.631620407E0
3.357039799E0,4.198076129E-1,1.975670934E0,9.613055229E0
3.359552872E0,4.389714301E-1,1.990043759E0,9.589100838E0
3.362065944E0,4.677171707E-1,1.966089010E0,9.674738884E0
3.364579069E0,4.629262388E-1,1.946925163E0,9.655574799E0
3.367092142E0,4.198076129E-1,1.966089010E0,9.622637749E0
3.369605215E0,4.485533535E-1,1.956507087E0,9.650784492E0
3.372118340E0,4.437623918E-1,1.970879912E0,9.660366058E0
3.374631413E0,4.485533535E-1,1.980461836E0,9.669947624E0
3.377144538E0,4.437623918E-1,1.970879912E0,9.622637749E0
3.379657611E0,4.389714301E-1,1.961298108E0,9.636411667E0
3.382170684E0,4.341804981E-1,1.913987398E0,9.655574799E0
3.384683809E0,4.293895364E-1,1.961298108E0,9.598682404E0
3.387196882E0,3.820788264E-1,1.985252857E0,9.598682404E0
3.389710007E0,3.820788264E-1,1.942134261E0,9.679530144E0
3.392223080E0,4.293895364E-1,1.932552338E0,9.645993233E0
3.394736153E0,3.868697882E-1,1.932552338E0,9.707676888E0
3.397249278E0,3.772878647E-1,1.932552338E0,9.693902969E0
3.399762351E0,3.916607499E-1,1.975670934E0,9.689111710E0
3.402275424E0,3.868697882E-1,1.918179393E0,9.679530144E0
3.404788549E0,4.108245671E-1,1.913388491E0,9.707676888E0
3.407301622E0,4.293895364E-1,1.880450606E0,9.669947624E0
3.409814747E0,4.389714301E-1,1.875659704E0,9.698693275E0
3.412327819E0,4.437623918E-1,1.903806567E0,9.760376930E0
3.414840892E0,4.204064906E-1,1.918179393E0,9.741213799E0
3.417354017E0,4.060336053E-1,1.908597589E0,9.712468147E0
3.419867090E0,4.341804981E-1,1.851704955E0,9.693902969E0
3.422380215E0,4.341804981E-1,1.885241628E0,9.717258453E0
3.424893288E0,4.251974523E-1,1.946925163E0,9.755586624E0
3.427406361E0,4.341804981E-1,1.885241628E0,9.703484535E0
3.429919486E0,4.204064906E-1,1.861286879E0,9.713067055E0
3.432432559E0,3.868697882E-1,1.922970414E0,9.655574799E0
3.434945632E0,3.916607499E-1,1.885241628E0,9.627428055E0
3.437458757E0,4.437623918E-1,1.927761316E0,9.674738884E0
3.439971830E0,4.108245671E-1,1.908597589E0,9.637010574E0
3.442484955E0,4.156155288E-1,1.861286879E0,9.645993233E0
3.444998028E0,3.916607499E-1,1.894224644E0,9.679530144E0
3.447511101E0,4.251974523E-1,1.918179393E0,9.617846489E0
3.450024174E0,3.868697882E-1,1.937343240E0,9.608263969E0
3.452537299E0,3.868697882E-1,1.918179393E0,9.551371574E0
3.455050372E0,4.204064906E-1,1.894224644E0,9.517834663E0
3.457563497E0,3.820788264E-1,1.951716185E0,9.551371574E0
3.460076569E0,3.820788264E-1,1.932552338E0,9.532208443E0
3.462589694E0,4.299883842E-1,1.913388491E0,9.517834663E0
3.465102767E0,3.964517117E-1,1.922970414E0,9.489687920E0
3.467615892E0,3.964517117E-1,1.918179393E0,9.475315094E0
3.470128965E0,3.868697882E-1,1.932552338E0,9.465733528E0
3.472642090E0,3.251862228E-1,1.932552338E0,9.475315094E0
3.475155163E0,3.299771547E-1,1.870269895E0,9.446569443E0
3.477668288E0,3.629150093E-1,1.913388491E0,9.418422699E0
3.480181361E0,3.203952610E-1,1.903806567E0,9.370512962E0
3.482694486E0,2.916495204E-1,1.884642720E0,9.404049873E0
3.485207559E0,2.629037797E-1,1.894224644E0,9.451360703E0
3.487720684E0,2.629037797E-1,1.903806567E0,9.418422699E0
3.490233757E0,2.772766352E-1,1.908597589E0,9.380095482E0
3.492746882E0,2.012201995E-1,1.894224644E0,9.361530304E0
3.495259955E0,1.676834971E-1,1.875060797E0,9.380095482E0
3.497773080E0,1.820563674E-1,1.865478873E0,9.399258614E0
3.500286153E0,1.724744588E-1,1.865478873E0,9.432795525E0
3.502799278E0,1.676834971E-1,1.842123032E0,9.441779137E0
3.505312351E0,1.676834971E-1,1.842123032E0,9.460942268E0
3.507825476E0,1.054010540E-1,1.799004436E0,9.504060745E0
3.510338549E0,6.767226756E-2,1.731930971E0,9.565744400E0
3.512851674E0,9.162705392E-2,1.813377261E0,9.617846489E0
3.515364747E0,9.162705392E-2,1.808586359E0,9.646592140E0
3.517877872E0,8.204513788E-2,1.784631491E0,9.727439880E0
3.520390944E0,2.455365472E-2,1.799004436E0,9.746004105E0
3.522904069E0,4.371748492E-2,1.803795338E0,9.717857361E0
3.525417142E0,6.288131326E-2,1.741512895E0,9.789123535E0
3.527930267E0,2.934461273E-2,1.760676742E0,9.765168190E0
3.530443340E0,2.934461273E-2,1.779840589E0,9.817270279E0
3.532956465E0,7.725418359E-2,1.664857626E0,9.850806236E0
3.535469538E0,1.497174054E-2,1.688812375E0,9.860388756E0
3.537982611E0,3.892652690E-2,1.712767124E0,9.917281151E0
3.540495736E0,5.809035525E-2,1.703185201E0,9.902908325E0
3.543008809E0,6.288131326E-2,1.674439549E0,9.959800720E0
3.545521934E0,4.371748492E-2,1.698394299E0,9.974173546E0
3.548035007E0,7.725418359E-2,1.698394299E0,9.983756065E0
3.550548132E0,3.892652690E-2,1.703185201E0,9.969383240E0
3.553061205E0,5.809035525E-2,1.693603277E0,1.001250172E1
3.555574330E0,1.012089700E-1,1.684021473E0,1.000291920E1
3.558087403E0,1.341467947E-1,1.688812375E0,1.002208328E1
3.560600528E0,1.964292377E-1,1.684021473E0,1.002208328E1
3.563113601E0,1.724744588E-1,1.684021473E0,9.988546371E0
3.565626726E0,2.395478487E-1,1.660066605E0,1.002687454E1
3.568139799E0,2.108021080E-1,1.684021473E0,9.983756065E0
3.570652924E0,2.491297722E-1,1.736721992E0,9.964591980E0
3.573165997E0,2.964404821E-1,1.660066605E0,9.974173546E0
3.575679122E0,2.820675969E-1,1.679230452E0,9.922072411E0
3.578192194E0,3.012314141E-1,1.636111856E0,9.865179062E0
3.580705319E0,3.491410017E-1,1.674439549E0,9.865179062E0
3.583218392E0,3.964517117E-1,1.684021473E0,9.846015930E0
3.585731517E0,3.778867424E-1,1.712767124E0,9.798705101E0
3.588244590E0,3.964517117E-1,1.727140069E0,9.765168190E0
3.590757715E0,4.635250866E-1,1.707976222E0,9.684320450E0
3.593270788E0,4.347793460E-1,1.698394299E0,9.670546532E0
3.595783913E0,4.443612695E-1,1.693603277E0,9.651383400E0
3.598296986E0,4.443612695E-1,1.698394299E0,9.637010574E0
3.600810111E0,4.587341547E-1,1.751094818E0,9.604072571E0
3.603323184E0,4.826889336E-1,1.731930971E0,9.504060745E0
3.605836309E0,4.826889336E-1,1.746303916E0,9.489687920E0
3.608349382E0,5.443724990E-1,1.741512895E0,9.465733528E0
3.610862507E0,5.539544225E-1,1.722349048E0,9.456750870E0
3.613375580E0,5.347905755E-1,1.717558146E0,9.437586784E0
3.615888705E0,4.778979719E-1,1.688812375E0,9.380694389E0
3.618401778E0,5.731182694E-1,1.679230452E0,9.390275955E0
3.620914903E0,5.395815372E-1,1.727140069E0,9.347157478E0
3.623427976E0,4.539431930E-1,1.679230452E0,9.275892258E0
3.625941101E0,4.731070101E-1,1.693603277E0,9.271100998E0
3.628454174E0,4.347793460E-1,1.703185201E0,9.266309738E0
3.630967299E0,4.347793460E-1,1.693603277E0,9.223790169E0
3.633480372E0,4.108245671E-1,1.698394299E0,9.223790169E0
3.635993497E0,3.683048189E-1,1.660066605E0,9.204626083E0
3.638506569E0,3.491410017E-1,1.684021473E0,9.204626083E0
3.641019694E0,3.108133376E-1,1.621739030E0,9.233371735E0
3.643532767E0,3.251862228E-1,1.664857626E0,9.256728172E0
3.646045892E0,3.203952610E-1,1.660066605E0,9.209417343E0
3.648558965E0,3.395590782E-1,1.664857626E0,9.238162994E0
3.651072090E0,3.156042993E-1,1.660066605E0,9.218998909E0
3.653585163E0,3.587229252E-1,1.621739030E0,9.285473824E0
3.656098288E0,3.060223758E-1,1.626529932E0,9.290265083E0
3.658611361E0,2.964404821E-1,1.607366085E0,9.342366219E0
3.661124486E0,3.012314141E-1,1.573829412E0,9.356739044E0
3.663637559E0,2.778755128E-1,1.645693779E0,9.342366219E0
3.666150684E0,2.922483683E-1,1.607366085E0,9.390275955E0
3.668663757E0,3.060223758E-1,1.569038391E0,9.432795525E0
3.671176882E0,2.635026276E-1,1.573829412E0,9.456750870E0
3.673689955E0,2.251749784E-1,1.531309605E0,9.551371574E0
3.676203080E0,1.868473291E-1,1.531309605E0,9.584908485E0
3.678716153E0,2.108021080E-1,1.531309605E0,9.651383400E0
3.681229278E0,1.820563674E-1,1.516936779E0,9.694501877E0
3.683742351E0,1.778642833E-1,1.516936779E0,9.727439880E0
3.686255476E0,1.820563674E-1,1.483400106E0,9.774749756E0
3.688768549E0,1.539094895E-1,1.497772932E0,9.855597496E0
3.691281674E0,1.539094895E-1,1.502563953E0,9.946026802E0
3.693794747E0,6.767226756E-2,1.469027162E0,9.955608368E0
3.696307872E0,1.012089700E-1,1.449863434E0,1.001250172E1
3.698820944E0,1.059999242E-1,1.392371893E0,1.002208328E1
3.701334069E0,1.059999242E-1,1.430699587E0,1.008855820E1
3.703847142E0,8.204513788E-2,1.469027162E0,1.014065933E1
3.706360267E0,8.683609962E-2,1.449863434E0,1.018377781E1
3.708873340E0,1.395366192E-1,1.440281510E0,1.021192455E1
3.711386465E0,1.443275809E-1,1.464236259E0,1.024546146E1
3.713899538E0,1.299547106E-1,1.469027162E0,1.022150707E1
3.716412663E0,1.443275809E-1,1.497772932E0,1.022150707E1
3.718925736E0,1.874461919E-1,1.530710816E0,1.022629833E1
3.721438861E0,2.251749784E-1,1.492982030E0,1.021252346E1
3.723951934E0,2.347569019E-1,1.535501719E0,1.019815063E1
3.726465059E0,2.347569019E-1,1.535501719E0,1.019336033E1
3.728978132E0,2.635026276E-1,1.511546969E0,1.018856907E1
3.731491257E0,2.778755128E-1,1.540292740E0,1.021671581E1
3.734004330E0,3.066212535E-1,1.530710816E0,1.019336033E1
3.736517455E0,3.587229252E-1,1.569038391E0,1.013646698E1
3.739030528E0,3.347681165E-1,1.616948009E0,1.008855820E1
3.741543653E0,3.257850707E-1,1.636111856E0,1.009334850E1
3.744056726E0,3.395590782E-1,1.597784162E0,1.007418537E1
3.746569851E0,3.587229252E-1,1.616948009E0,9.998727798E0
3.749082924E0,3.970505595E-1,1.636111856E0,1.001250172E1
3.751596049E0,4.257963002E-1,1.660066605E0,1.006041145E1
3.754109122E0,4.497511089E-1,1.693603277E0,1.001250172E1
3.756622247E0,4.449601471E-1,1.679230452E0,1.004603767E1
3.759135319E0,4.970617890E-1,1.674439549E0,1.008376694E1
3.761648444E0,4.970617890E-1,1.679230452E0,1.005082893E1
3.764161517E0,4.449601471E-1,1.712767124E0,9.989145279E0
3.766674642E0,4.874798954E-1,1.669648528E0,9.936445236E0
3.769187715E0,4.778979719E-1,1.679230452E0,9.960399628E0
3.771700840E0,4.401691854E-1,1.660066605E0,9.932252884E0
3.774213913E0,4.162144065E-1,1.674439549E0,9.936445236E0
3.776727038E0,4.305872619E-1,1.698394299E0,9.917880058E0
3.779240111E0,4.689149261E-1,1.698394299E0,9.893925667E0
3.781753236E0,4.353782237E-1,1.664857626E0,9.856196404E0
3.784266309E0,4.305872619E-1,1.669648528E0,9.803496361E0
3.786779434E0,4.593330026E-1,1.655275702E0,9.780139923E0
3.789292507E0,4.593330026E-1,1.621739030E0,9.784931183E0
3.791805632E0,5.066437125E-1,1.650484681E0,9.808286667E0
3.794318705E0,4.737058878E-1,1.612157106E0,9.798705101E0
3.796831830E0,4.737058878E-1,1.569038391E0,9.798705101E0
3.799344903E0,4.545420408E-1,1.607366085E0,9.727439880E0
3.801858028E0,4.545420408E-1,1.612157106E0,9.746603012E0
3.804371101E0,4.641239643E-1,1.583411336E0,9.704083443E0
3.806884226E0,5.162256360E-1,1.573829412E0,9.713665962E0
3.809397299E0,4.689149261E-1,1.511546969E0,9.718456268E0
3.811910424E0,4.593330026E-1,1.535501719E0,9.680129051E0
3.814423497E0,4.593330026E-1,1.549874663E0,9.675337791E0
3.816936622E0,4.545420408E-1,1.501965046E0,9.684919357E0
3.819449694E0,4.305872619E-1,1.516337872E0,9.637609482E0
3.821962819E0,4.641239643E-1,1.516337872E0,9.594490051E0
3.824475892E0,4.641239643E-1,1.540292740E0,9.584908485E0
3.826989017E0,4.880787432E-1,1.516337872E0,9.532806396E0
3.829502090E0,4.545420408E-1,1.521128893E0,9.528016090E0
3.832015215E0,4.066324830E-1,1.535501719E0,9.495078087E0
3.834528288E0,4.641239643E-1,1.501965046E0,9.485496521E0
3.837041413E0,4.497511089E-1,1.535501719E0,9.466332436E0
3.839554486E0,4.305872619E-1,1.468428373E0,9.419021606E0
3.842067611E0,4.497511089E-1,1.449863434E0,9.342965126E0
3.844580684E0,4.066324830E-1,1.463637352E0,9.380694389E0
3.847093809E0,4.545420408E-1,1.478010297E0,9.366919518E0
3.849606882E0,4.497511089E-1,1.440281510E0,9.371710777E0
3.852120007E0,4.401691854E-1,1.454055429E0,9.342965126E0
3.854633080E0,4.497511089E-1,1.478010297E0,9.328592300E0
3.857146205E0,4.114234447E-1,1.487592220E0,9.319010735E0
3.859659278E0,4.497511089E-1,1.435490489E0,9.262117386E0
3.862172403E0,4.066324830E-1,1.454055429E0,9.333383560E0
3.864685476E0,4.305872619E-1,1.406744719E0,9.333383560E0
3.867198601E0,4.162144065E-1,1.458846450E0,9.323801041E0
3.869711674E0,4.066324830E-1,1.458846450E0,9.357337952E0
3.872224799E0,4.018415213E-1,1.454055429E0,9.404648781E0
3.874737872E0,3.689036965E-1,1.449264526E0,9.385484695E0
3.877250997E0,3.784856200E-1,1.463637352E0,9.390275955E0
3.879764069E0,4.162144065E-1,1.454055429E0,9.423812866E0
3.882277194E0,3.928584754E-1,1.458846450E0,9.451959610E0
3.884790267E0,4.305872619E-1,1.454055429E0,9.461541176E0
3.887303392E0,3.976494372E-1,1.439682603E0,9.447767258E0
3.889816465E0,3.641127348E-1,1.439682603E0,9.442975998E0
3.892329590E0,4.257963002E-1,1.487592220E0,9.471123695E0
3.894842663E0,4.305872619E-1,1.430100679E0,9.504659653E0
3.897355788E0,3.976494372E-1,1.430100679E0,9.419021606E0
3.899868861E0,3.689036965E-1,1.444473505E0,9.466332436E0
3.902381986E0,3.641127348E-1,1.439682603E0,9.537597656E0
3.904895059E0,3.545308113E-1,1.482801199E0,9.466332436E0
3.907408184E0,3.497398794E-1,1.497174144E0,9.471123695E0
3.909921257E0,3.689036965E-1,1.454055429E0,9.471123695E0
3.912434382E0,3.162031770E-1,1.444473505E0,9.499869347E0
3.914947455E0,3.257850707E-1,1.473219275E0,9.523823738E0
3.917460580E0,2.736834288E-1,1.463637352E0,9.499869347E0
3.919973653E0,2.736834288E-1,1.497174144E0,9.532806396E0
3.922486778E0,3.114122152E-1,1.521128893E0,9.561553001E0
3.924999851E0,3.114122152E-1,1.521128893E0,9.608862877E0
3.927512976E0,2.305648029E-1,1.444473505E0,9.694501877E0
3.930026049E0,2.736834288E-1,1.497174144E0,9.661563873E0
3.932539122E0,3.114122152E-1,1.454055429E0,9.728038788E0
3.935052247E0,2.545195818E-1,1.492383122E0,9.708874702E0
3.937565319E0,2.688924670E-1,1.478010297E0,9.747201920E0
3.940078444E0,2.928472459E-1,1.506755948E0,9.718456268E0
3.942591517E0,2.641015053E-1,1.482801199E0,9.784931183E0
3.945104642E0,3.066212535E-1,1.501965046E0,9.813676834E0
3.947617715E0,2.257738560E-1,1.521128893E0,9.818468094E0
3.950130788E0,2.497286350E-1,1.525919795E0,9.851405144E0
3.952643913E0,2.880562842E-1,1.540292740E0,9.823258400E0
3.955156986E0,3.162031770E-1,1.521128893E0,9.832242012E0
3.957670059E0,3.162031770E-1,1.516337872E0,9.832242012E0
3.960183132E0,3.209941387E-1,1.511546969E0,9.851405144E0
3.962696205E0,3.209941387E-1,1.554665565E0,9.875360489E0
3.965209278E0,3.353669941E-1,1.564247489E0,9.894524574E0
3.967722403E0,3.072201312E-1,1.573829412E0,9.917880058E0
3.970235476E0,2.976382077E-1,1.588202238E0,9.894524574E0
3.972748549E0,3.209941387E-1,1.569038391E0,9.937044144E0
3.975261622E0,3.305760324E-1,1.549874663E0,9.917880058E0
3.977774694E0,3.641127348E-1,1.569038391E0,9.932252884E0
3.980287767E0,3.880675137E-1,1.554665565E0,9.946625710E0
3.982800892E0,3.545308113E-1,1.611558199E0,9.965789795E0
3.985313965E0,3.641127348E-1,1.611558199E0,9.970580101E0
3.987827038E0,3.449489176E-1,1.588202238E0,9.956207275E0
3.990340111E0,3.880675137E-1,1.611558199E0,9.922671318E0
3.992853184E0,3.641127348E-1,1.578620315E0,9.941834450E0
3.995366257E0,3.832765818E-1,1.583411336E0,9.975371361E0
3.997879382E0,3.641127348E-1,1.578620315E0,9.908897400E0
4.000392455E0,3.497398794E-1,1.554665565E0,9.889733315E0
4.002905528E0,3.689036965E-1,1.564247489E0,9.951416969E0
4.005418601E0,3.784856200E-1,1.554665565E0,9.917880058E0
4.007931674E0,3.641127348E-1,1.554665565E0,9.922671318E0
4.010444747E0,3.449489176E-1,1.535501719E0,9.917880058E0
4.012957872E0,3.353669941E-1,1.506755948E0,9.937044144E0
4.015470944E0,3.096156120E-1,1.546281457E0,9.887936592E0
4.017984017E0,3.527342081E-1,1.555863261E0,9.859789848E0
4.020497090E0,3.718980551E-1,1.498371840E0,9.887936592E0
4.023010163E0,3.623161316E-1,1.507953763E0,9.897518158E0
4.025523236E0,3.575251698E-1,1.507953763E0,9.831044197E0
4.028036361E0,3.910618722E-1,1.503162742E0,9.816671371E0
4.030549434E0,3.910618722E-1,1.488789916E0,9.764569283E0
4.033062507E0,3.575251698E-1,1.483999014E0,9.740614891E0
4.035575580E0,4.054347575E-1,1.488789916E0,9.769360542E0
4.038088653E0,3.862709105E-1,1.493580818E0,9.788524628E0
4.040601726E0,4.006437957E-1,1.460044146E0,9.802298546E0
4.043114851E0,4.150166512E-1,1.474417090E0,9.759778023E0
4.045627924E0,4.150166512E-1,1.479207993E0,9.717258453E0
4.048140997E0,4.150166512E-1,1.464835167E0,9.707676888E0
4.050654069E0,4.623273611E-1,1.460044146E0,9.745405197E0
4.053167142E0,4.239996970E-1,1.503162742E0,9.740614891E0
4.055680215E0,4.287906587E-1,1.483999014E0,9.726242065E0
4.058193340E0,4.150166512E-1,1.450462222E0,9.707676888E0
4.060706413E0,4.383725822E-1,1.436089396E0,9.745405197E0
4.063219486E0,4.575363994E-1,1.407343626E0,9.683721542E0
4.065732559E0,4.479544759E-1,1.450462222E0,9.645993233E0
4.068245632E0,4.335816205E-1,1.436089396E0,9.664558411E0
4.070758705E0,4.150166512E-1,1.460044146E0,9.626829147E0
4.073271830E0,4.287906587E-1,1.455253243E0,9.631620407E0
4.075784903E0,4.102256894E-1,1.445671320E0,9.636411667E0
4.078297976E0,4.150166512E-1,1.436089396E0,9.555563927E0
4.080811049E0,3.958528340E-1,1.455253243E0,9.588501930E0
4.083324122E0,3.910618722E-1,1.460044146E0,9.622038841E0
4.085837194E0,3.479432464E-1,1.460044146E0,9.569936752E0
4.088350267E0,3.766889870E-1,1.483999014E0,9.531609535E0
4.090863392E0,4.054347575E-1,1.455253243E0,9.541191101E0
4.093376465E0,3.958528340E-1,1.436089396E0,9.526818275E0
4.095889538E0,4.150166512E-1,1.436089396E0,9.555563927E0
4.098402611E0,4.335816205E-1,1.445671320E0,9.512445450E0
4.100915684E0,3.958528340E-1,1.474417090E0,9.555563927E0
4.103428757E0,3.862709105E-1,1.445671320E0,9.560355186E0
4.105941882E0,3.958528340E-1,1.493580818E0,9.517236710E0
4.108454955E0,3.335703909E-1,1.536699533E0,9.536399841E0
4.110968028E0,3.335703909E-1,1.474417090E0,9.512445450E0
4.113481101E0,3.814799488E-1,1.431298375E0,9.526818275E0
4.115994174E0,3.814799488E-1,1.440880299E0,9.545982361E0
4.118507247E0,3.671070933E-1,1.474417090E0,9.517236710E0
4.121020372E0,3.575251698E-1,1.483999014E0,9.541191101E0
4.123533444E0,3.575251698E-1,1.469626069E0,9.536399841E0
4.126046517E0,3.527342081E-1,1.488789916E0,9.507654190E0
4.128559590E0,3.431523144E-1,1.440880299E0,9.512445450E0
4.131072663E0,3.383613527E-1,1.440880299E0,9.531609535E0
4.133585736E0,3.766889870E-1,1.498371840E0,9.555563927E0
4.136098861E0,3.718980551E-1,1.474417090E0,9.588501930E0
4.138611934E0,3.575251698E-1,1.474417090E0,9.602874756E0
4.141125007E0,3.048246503E-1,1.460044146E0,9.602874756E0
4.143638080E0,3.191975057E-1,1.527117610E0,9.612456322E0
4.146151153E0,3.958528340E-1,1.488789916E0,9.626829147E0
4.148664226E0,3.814799488E-1,1.469626069E0,9.654975891E0
4.151177351E0,3.623161316E-1,1.460044146E0,9.683721542E0
4.153690424E0,3.575251698E-1,1.479207993E0,9.707676888E0
4.156203497E0,3.814799488E-1,1.507953763E0,9.688512802E0
4.158716569E0,3.718980551E-1,1.512744665E0,9.698095322E0
4.161229642E0,3.766889870E-1,1.450462222E0,9.669348717E0
4.163742715E0,3.766889870E-1,1.450462222E0,9.731032372E0
4.166255840E0,4.006437957E-1,1.455253243E0,9.707676888E0
4.168768913E0,4.431635439E-1,1.493580818E0,9.759778023E0
4.171281986E0,4.150166512E-1,1.483999014E0,9.745405197E0
4.173795059E0,3.718980551E-1,1.440880299E0,9.759778023E0
4.176308132E0,4.102256894E-1,1.431298375E0,9.726242065E0
4.178821205E0,4.006437957E-1,1.527117610E0,9.693304062E0
4.181334330E0,4.150166512E-1,1.503162742E0,9.754987717E0
4.183847403E0,3.814799488E-1,1.522326589E0,9.802298546E0
4.186360476E0,4.245985746E-1,1.527117610E0,9.740614891E0
4.188873549E0,4.198076129E-1,1.507953763E0,9.688512802E0
4.191386622E0,4.006437957E-1,1.469626069E0,9.769360542E0
4.193899694E0,4.293895364E-1,1.460044146E0,9.754987717E0
4.196412819E0,3.910618722E-1,1.483999014E0,9.793314934E0
4.198925892E0,3.910618722E-1,1.455253243E0,9.740614891E0
4.201438965E0,3.862709105E-1,1.479207993E0,9.707676888E0
4.203952038E0,4.006437957E-1,1.474417090E0,9.735823631E0
4.206465111E0,3.527342081E-1,1.464835167E0,9.745405197E0
4.208978184E0,3.335703909E-1,1.479207993E0,9.745405197E0
4.211491309E0,3.862709105E-1,1.464835167E0,9.707676888E0
4.214004382E0,3.814799488E-1,1.460044146E0,9.688512802E0
4.216517455E0,3.671070933E-1,1.493580818E0,9.693304062E0
4.219030528E0,4.054347575E-1,1.488789916E0,9.698095322E0
4.221543601E0,3.671070933E-1,1.498371840E0,9.717258453E0
4.224056674E0,3.575251698E-1,1.479207993E0,9.717258453E0
4.226569799E0,3.671070933E-1,1.541490436E0,9.698095322E0
4.229082872E0,3.623161316E-1,1.507953763E0,9.707676888E0
4.231595944E0,3.335703909E-1,1.460044146E0,9.759778023E0
4.234109017E0,3.814799488E-1,1.531908512E0,9.722049713E0
4.236622090E0,4.150166512E-1,1.527117610E0,9.674139977E0
4.239135163E0,3.958528340E-1,1.512744665E0,9.688512802E0
4.241648288E0,4.102256894E-1,1.507953763E0,9.654975891E0
4.244161361E0,3.814799488E-1,1.483999014E0,9.731032372E0
4.246674434E0,3.814799488E-1,1.498371840E0,9.745405197E0
4.249187507E0,3.671070933E-1,1.474417090E0,9.750196457E0
4.251700580E0,3.766889870E-1,1.517535686E0,9.683721542E0
4.254213653E0,3.287794292E-1,1.541490436E0,9.631620407E0
4.256726778E0,3.623161316E-1,1.498371840E0,9.669348717E0
4.259239851E0,3.623161316E-1,1.507953763E0,9.678931236E0
4.261752924E0,3.431523144E-1,1.488789916E0,9.674139977E0
4.264265997E0,3.479432464E-1,1.493580818E0,9.593292236E0
4.266779069E0,3.191975057E-1,1.551072359E0,9.598083496E0
4.269292142E0,2.718868256E-1,1.483999014E0,9.574728012E0
4.271805267E0,3.479432464E-1,1.474417090E0,9.579518318E0
4.274318340E0,3.575251698E-1,1.498371840E0,9.607666016E0
4.276831413E0,3.335703909E-1,1.507953763E0,9.612456322E0
4.279344486E0,3.479432464E-1,1.498371840E0,9.598083496E0
4.281857559E0,3.479432464E-1,1.512744665E0,9.645993233E0
4.284370632E0,3.623161316E-1,1.546281457E0,9.636411667E0
4.286883757E0,3.431523144E-1,1.512744665E0,9.669348717E0
4.289396830E0,2.910506427E-1,1.479207993E0,9.659767151E0
4.291909903E0,3.479432464E-1,1.488789916E0,9.674139977E0
4.294422976E0,3.527342081E-1,1.488789916E0,9.698095322E0
4.296936049E0,3.191975057E-1,1.531908512E0,9.693304062E0
4.299449122E0,2.766777575E-1,1.527117610E0,9.688512802E0
4.301962247E0,2.670958638E-1,1.493580818E0,9.735823631E0
4.304475319E0,3.287794292E-1,1.474417090E0,9.722049713E0
4.306988392E0,2.766777575E-1,1.483999014E0,9.717258453E0
4.309501465E0,3.006325662E-1,1.488789916E0,9.774150848E0
4.312014538E0,3.575251698E-1,1.474417090E0,9.731032372E0
4.314527611E0,3.335703909E-1,1.474417090E0,9.774150848E0
4.317040736E0,3.054235280E-1,1.464835167E0,9.750196457E0
4.319553809E0,3.239884675E-1,1.503162742E0,9.731032372E0
4.322066882E0,3.239884675E-1,1.517535686E0,9.754987717E0
4.324579955E0,3.383613527E-1,1.488789916E0,9.712468147E0
4.327093028E0,3.383613527E-1,1.455253243E0,9.707676888E0
4.329606101E0,3.431523144E-1,1.531908512E0,9.712468147E0
4.332119226E0,3.239884675E-1,1.527117610E0,9.641201973E0
4.334632299E0,3.054235280E-1,1.474417090E0,9.612456322E0
4.337145372E0,2.910506427E-1,1.474417090E0,9.622038841E0
4.339658444E0,3.191975057E-1,1.483999014E0,9.655574799E0
4.342171517E0,3.479432464E-1,1.488789916E0,9.631620407E0
4.344684590E0,4.006437957E-1,1.498371840E0,9.641201973E0
4.347197663E0,3.862709105E-1,1.522326589E0,9.602874756E0
4.349710788E0,3.910618722E-1,1.479207993E0,9.669348717E0
4.352223861E0,3.718980551E-1,1.479207993E0,9.655574799E0
4.354736934E0,4.341804981E-1,1.493580818E0,9.602874756E0
4.357250007E0,4.389714301E-1,1.483999014E0,9.645993233E0
4.359763080E0,4.293895364E-1,1.493580818E0,9.678931236E0
4.362276153E0,4.102256894E-1,1.512744665E0,9.688512802E0
4.364789278E0,4.575363994E-1,1.517535686E0,9.669348717E0
4.367302351E0,4.910731018E-1,1.536699533E0,9.707676888E0
4.369815424E0,4.479544759E-1,1.531908512E0,9.735823631E0
4.372328497E0,4.958640635E-1,1.469626069E0,9.717258453E0
4.374841569E0,5.102369189E-1,1.488789916E0,9.717258453E0
4.377354642E0,4.910731018E-1,1.483999014E0,9.774150848E0
4.379867767E0,5.150278807E-1,1.450462222E0,9.759778023E0
4.382380840E0,4.814911783E-1,1.493580818E0,9.735823631E0
4.384893913E0,4.814911783E-1,1.522326589E0,9.750196457E0
4.387406986E0,4.767002165E-1,1.498371840E0,9.726840973E0
4.389920059E0,4.862821400E-1,1.464835167E0,9.750196457E0
4.392433132E0,5.198188424E-1,1.483999014E0,9.783733368E0
4.394946257E0,4.862821400E-1,1.460044146E0,9.807088852E0
4.397459330E0,4.910731018E-1,1.469626069E0,9.793314934E0
4.399972403E0,5.102369189E-1,1.440880299E0,9.774150848E0
4.402485476E0,5.246098042E-1,1.431298375E0,9.816671371E0
4.404998549E0,5.102369189E-1,1.436089396E0,9.816671371E0
4.407511622E0,5.102369189E-1,1.436089396E0,9.754987717E0
4.410024747E0,5.102369189E-1,1.440880299E0,9.798106194E0
4.412537819E0,5.389826894E-1,1.421716571E0,9.769360542E0
4.415050892E0,5.198188424E-1,1.397761703E0,9.759778023E0
4.417563965E0,4.910731018E-1,1.388179779E0,9.778942108E0
4.420077038E0,5.150278807E-1,1.445671320E0,9.798106194E0
4.422590111E0,4.862821400E-1,1.426507473E0,9.826252937E0
4.425103236E0,4.958640635E-1,1.426507473E0,9.754987717E0
4.427616309E0,5.006549954E-1,1.464835167E0,9.717258453E0
4.430129382E0,4.527454376E-1,1.431298375E0,9.793314934E0
4.432642455E0,5.198188424E-1,1.421716571E0,9.745405197E0
4.435155528E0,5.341917276E-1,1.445671320E0,9.778942108E0
4.437668601E0,4.767002165E-1,1.450462222E0,9.745405197E0
4.440181726E0,4.719092846E-1,1.440880299E0,9.674139977E0
4.442694799E0,4.958640635E-1,1.464835167E0,9.698095322E0
4.445207872E0,5.294007659E-1,1.488789916E0,9.693304062E0
4.447720944E0,4.910731018E-1,1.517535686E0,9.735823631E0
4.450234069E0,4.767002165E-1,1.512744665E0,9.659767151E0
4.452747142E0,5.006549954E-1,1.507953763E0,9.693304062E0
4.455260215E0,5.246098042E-1,1.469626069E0,9.617247581E0
4.457773340E0,5.006549954E-1,1.507953763E0,9.617247581E0
4.460286413E0,5.294007659E-1,1.488789916E0,9.659767151E0
4.462799486E0,5.246098042E-1,1.517535686E0,9.655574799E0
4.465312611E0,5.246098042E-1,1.546281457E0,9.622038841E0
4.467825684E0,4.958640635E-1,1.517535686E0,9.607666016E0
4.470338757E0,5.437736511E-1,1.488789916E0,9.569936752E0
4.472851882E0,5.006549954E-1,1.483999014E0,9.579518318E0
4.475364955E0,4.437623918E-1,1.555863261E0,9.612456322E0
4.477878028E0,4.527454376E-1,1.527117610E0,9.598083496E0
4.480391153E0,4.479544759E-1,1.536699533E0,9.489089012E0
4.482904226E0,4.389714301E-1,1.541490436E0,9.550772667E0
4.485417299E0,4.575363994E-1,1.588801146E0,9.555563927E0
4.487930424E0,4.671183228E-1,1.593592048E0,9.522027016E0
4.490443497E0,4.862821400E-1,1.546281457E0,9.517236710E0
4.492956569E0,4.389714301E-1,1.541490436E0,9.569936752E0
4.495469694E0,4.479544759E-1,1.574428320E0,9.560355186E0
4.497982767E0,4.239996970E-1,1.575027108E0,9.559756279E0
4.500495840E0,4.713104069E-1,1.551072359E0,9.564546585E0
4.503008965E0,4.808923304E-1,1.517535686E0,9.588501930E0
4.505522038E0,4.665194452E-1,1.541490436E0,9.574129105E0
4.508035111E0,5.000561476E-1,1.531908512E0,9.574129105E0
4.510548236E0,4.856832623E-1,1.560654283E0,9.593292236E0
4.513061309E0,5.335928202E-1,1.517535686E0,9.559756279E0
4.515574382E0,5.671295524E-1,1.541490436E0,9.611857414E0
4.518087507E0,5.000561476E-1,1.551072359E0,9.631021500E0
4.520600580E0,4.665194452E-1,1.517535686E0,9.674139977E0
4.523113705E0,4.952651858E-1,1.498371840E0,9.626230240E0
4.525626778E0,5.192199945E-1,1.484597802E0,9.669348717E0
4.528139851E0,5.527566671E-1,1.493580818E0,9.664558411E0
4.530652976E0,5.288019180E-1,1.475015879E0,9.650185585E0
4.533166049E0,5.240109563E-1,1.460643053E0,9.692705154E0
4.535679122E0,5.096380711E-1,1.465433955E0,9.650185585E0
4.538192247E0,4.808923304E-1,1.451061130E0,9.687913895E0
4.540705319E0,5.000561476E-1,1.427106380E0,9.692705154E0
4.543218392E0,4.713104069E-1,1.460643053E0,9.726242065E0
4.545731517E0,5.144290328E-1,1.465433955E0,9.745405197E0
4.548244590E0,5.096380711E-1,1.407942533E0,9.754388809E0
4.550757663E0,4.904742241E-1,1.422315359E0,9.749597549E0
4.553270788E0,4.856832623E-1,1.436688304E0,9.745405197E0
4.555783861E0,5.335928202E-1,1.393569589E0,9.778343201E0
4.558296934E0,4.808923304E-1,1.417524457E0,9.835235596E0
4.560810059E0,4.713104069E-1,1.407942533E0,9.844818115E0
4.563323132E0,4.713104069E-1,1.417524457E0,9.830445290E0
4.565836205E0,5.431747437E-1,1.465433955E0,9.840026855E0
4.568349330E0,5.623385906E-1,1.436688304E0,9.854399681E0
4.570862403E0,5.431747437E-1,1.431897283E0,9.816671371E0
4.573375476E0,5.671295524E-1,1.484597802E0,9.797507286E0
4.575888601E0,5.767114758E-1,1.465433955E0,9.768761635E0
4.578401674E0,6.288130879E-1,1.455852032E0,9.749597549E0
4.580914747E0,6.192312241E-1,1.498371840E0,9.707077980E0
4.583427872E0,6.192312241E-1,1.531908512E0,9.692705154E0
4.585940944E0,6.288130879E-1,1.546281457E0,9.654975891E0
4.588454069E0,6.383950114E-1,1.551072359E0,9.593292236E0
4.590967142E0,6.096493006E-1,1.584609032E0,9.611857414E0
4.593480215E0,5.856944919E-1,1.579818130E0,9.564546585E0
4.595993340E0,5.671295524E-1,1.570236206E0,9.616648674E0
4.598506413E0,5.671295524E-1,1.560654283E0,9.593292236E0
4.601019486E0,5.904854536E-1,1.598981977E0,9.593292236E0
4.603532611E0,5.719205141E-1,1.594190955E0,9.611857414E0
4.606045684E0,4.856832623E-1,1.618145704E0,9.593292236E0
4.608558757E0,4.527454376E-1,1.594190955E0,9.654975891E0
4.611071882E0,4.527454376E-1,1.618145704E0,9.674139977E0
4.613584955E0,4.527454376E-1,1.622936726E0,9.683123589E0
4.616098028E0,3.904629946E-1,1.613354802E0,9.707077980E0
4.618611153E0,3.952539563E-1,1.594190955E0,9.745405197E0
4.621124226E0,4.383725822E-1,1.589400053E0,9.778343201E0
4.623637299E0,4.431635439E-1,1.565445185E0,9.811880112E0
4.626150424E0,3.617172539E-1,1.579818130E0,9.849609375E0
4.628663497E0,3.287794292E-1,1.603772879E0,9.868772507E0
4.631176569E0,4.192087352E-1,1.546281457E0,9.883145332E0
4.633689694E0,4.287906587E-1,1.608563900E0,9.963993073E0
4.636202767E0,4.096268415E-1,1.608563900E0,9.911292076E0
4.638715840E0,4.048358798E-1,1.565445185E0,9.906501770E0
4.641228965E0,3.904629946E-1,1.536699533E0,9.901710510E0
4.643742038E0,4.287906587E-1,1.560654283E0,9.949620247E0
4.646255111E0,4.383725822E-1,1.536699533E0,1.000651264E1
4.648768236E0,4.383725822E-1,1.522326589E0,1.003046799E1
4.651281309E0,4.287906587E-1,1.555863261E0,1.000172138E1
4.653794382E0,4.479544759E-1,1.536699533E0,9.987348557E0
4.656307507E0,4.287906587E-1,1.512744665E0,1.000172138E1
4.658820580E0,4.000449181E-1,1.536699533E0,9.996931076E0
4.661333705E0,4.335816205E-1,1.507953763E0,9.987348557E0
4.663846778E0,4.479544759E-1,1.475015879E0,1.002567673E1
4.666359851E0,4.192087352E-1,1.436688304E0,9.968185425E0
4.668872976E0,4.856832623E-1,1.475015879E0,9.944828987E0
4.671386049E0,5.240109563E-1,1.479806900E0,9.949620247E0
4.673899122E0,5.000561476E-1,1.498371840E0,9.968185425E0
4.676412247E0,4.527454376E-1,1.407942533E0,9.972975731E0
4.678925319E0,5.192199945E-1,1.451061130E0,9.916083336E0
4.681438392E0,5.288019180E-1,1.498371840E0,9.920874596E0
4.683951517E0,5.719205141E-1,1.446270227E0,9.906501770E0
4.686464590E0,5.623385906E-1,1.451061130E0,9.863982201E0
4.688977663E0,6.048583388E-1,1.436688304E0,9.925664902E0
4.691490788E0,6.383950114E-1,1.451061130E0,9.863982201E0
4.694003861E0,6.479769349E-1,1.436688304E0,9.901710510E0
4.696516934E0,6.288130879E-1,1.398360610E0,9.920874596E0
4.699030059E0,6.958864927E-1,1.398360610E0,9.883145332E0
4.701543132E0,6.958864927E-1,1.427106380E0,9.816671371E0
4.704056205E0,6.863046288E-1,1.412733436E0,9.807088852E0
4.706569330E0,6.910955310E-1,1.393569589E0,9.849609375E0
4.709082403E0,6.575588584E-1,1.393569589E0,9.840026855E0
4.711595476E0,7.192424536E-1,1.393569589E0,9.797507286E0
4.714108601E0,7.240334153E-1,1.398360610E0,9.830445290E0
4.716621674E0,7.144514918E-1,1.369614840E0,9.792716026E0
4.719134747E0,7.048695683E-1,1.379196763E0,9.773552895E0
4.721647872E0,6.815136671E-1,1.364823937E0,9.802298546E0
4.724160944E0,6.863046288E-1,1.364823937E0,9.768761635E0
4.726674069E0,7.240334153E-1,1.393569589E0,9.716659546E0
4.729187142E0,7.384062409E-1,1.403151512E0,9.759179115E0
4.731700215E0,7.671520114E-1,1.436688304E0,9.721450806E0
4.734213340E0,7.911067605E-1,1.393569589E0,9.759179115E0
4.736726413E0,8.102706075E-1,1.388778687E0,9.678332329E0
4.739239486E0,7.767339349E-1,1.427106380E0,9.631021500E0
4.741752611E0,7.671520114E-1,1.427106380E0,9.669348717E0
4.744265684E0,7.767339349E-1,1.465433955E0,9.583710670E0
4.746778757E0,7.719429731E-1,1.441479206E0,9.540592194E0
4.749291882E0,8.198525310E-1,1.455852032E0,9.512445450E0
4.751804955E0,8.246434927E-1,1.493580818E0,9.488490105E0
4.754318028E0,7.863158584E-1,1.517535686E0,9.450761795E0
4.756831153E0,7.767339349E-1,1.527117610E0,9.412433624E0
4.759344226E0,7.431972027E-1,1.507953763E0,9.450761795E0
4.761857299E0,7.863158584E-1,1.527117610E0,9.441180229E0
4.764370424E0,7.336152792E-1,1.560654283E0,9.469326973E0
4.766883497E0,7.336152792E-1,1.527117610E0,9.426807404E0
4.769396569E0,7.240334153E-1,1.551072359E0,9.464535713E0
4.771909694E0,6.958864927E-1,1.536699533E0,9.507654190E0
4.774422767E0,6.767227054E-1,1.546281457E0,9.469326973E0
4.776935840E0,6.671407819E-1,1.575027108E0,9.478908539E0
4.779448965E0,6.288130879E-1,1.546281457E0,9.488490105E0
4.781962038E0,5.671295524E-1,1.560654283E0,9.498072624E0
4.784475111E0,6.000673771E-1,1.594190955E0,9.526818275E0
4.786988236E0,5.952764153E-1,1.570236206E0,9.535800934E0
4.789501309E0,5.623385906E-1,1.531908512E0,9.531010628E0
4.792014434E0,5.431747437E-1,1.666055322E0,9.526818275E0
4.794527507E0,5.575476289E-1,1.651682496E0,9.526818275E0
4.797040580E0,5.048471093E-1,1.589400053E0,9.526818275E0
4.799553705E0,4.856832623E-1,1.594190955E0,9.545383453E0
4.802066778E0,4.761013687E-1,1.622936726E0,9.531010628E0
4.804579851E0,4.569375217E-1,1.608563900E0,9.478908539E0
4.807092976E0,4.239996970E-1,1.618145704E0,9.507654190E0
4.809606049E0,4.192087352E-1,1.642100573E0,9.540592194E0
4.812119122E0,4.000449181E-1,1.613354802E0,9.531010628E0
4.814632247E0,3.760901392E-1,1.622936726E0,9.507654190E0
4.817145319E0,3.239884675E-1,1.666055322E0,9.526818275E0
4.819658392E0,3.096156120E-1,1.651682496E0,9.507654190E0
4.822171517E0,3.377624750E-1,1.670846343E0,9.554965019E0
4.824684590E0,2.712879479E-1,1.642100573E0,9.540592194E0
4.827197663E0,2.664969862E-1,1.594190955E0,9.531010628E0
4.829710788E0,2.856608033E-1,1.632518649E0,9.550173759E0
4.832223861E0,2.090055048E-1,1.598981977E0,9.545383453E0
4.834736934E0,1.760676801E-1,1.666055322E0,9.550173759E0
4.837250059E0,1.952314973E-1,1.603772879E0,9.583710670E0
4.839763132E0,2.000224590E-1,1.618145704E0,9.640603065E0
4.842276205E0,1.856495887E-1,1.646891475E0,9.621439934E0
4.844789330E0,1.712767184E-1,1.608563900E0,9.602874756E0
4.847302403E0,1.569038481E-1,1.613354802E0,9.621439934E0
4.849815476E0,1.473219246E-1,1.622936726E0,9.631021500E0
4.852328601E0,1.185761914E-1,1.579818130E0,9.574129105E0
4.854841674E0,1.377400160E-1,1.589400053E0,9.664558411E0
4.857354747E0,1.089942753E-1,1.584609032E0,9.593292236E0
4.859867872E0,5.689261481E-2,1.584609032E0,9.650185585E0
4.862380944E0,1.329490542E-1,1.598981977E0,9.650185585E0
4.864894069E0,1.281581074E-1,1.560654283E0,9.626230240E0
4.867407142E0,8.084739745E-2,1.551072359E0,9.621439934E0
4.869920215E0,1.233671457E-1,1.565445185E0,9.635812759E0
4.872433340E0,5.689261481E-2,1.589400053E0,9.678332329E0
4.874946413E0,1.856495813E-2,1.613354802E0,9.669348717E0
4.877459486E0,5.210165679E-2,1.589400053E0,9.678332329E0
4.879972611E0,4.731070250E-2,1.546281457E0,9.687913895E0
4.882485684E0,1.377400197E-2,1.555863261E0,9.687913895E0
4.884998757E0,2.814687230E-2,1.527117610E0,9.749597549E0
4.887511882E0,-5.389826838E-3,1.536699533E0,9.802298546E0
4.890024955E0,-6.707339734E-2,1.522326589E0,9.830445290E0
4.892538028E0,-5.270052701E-2,1.512744665E0,9.773552895E0
4.895051153E0,-5.389826838E-3,1.527117610E0,9.773552895E0
4.897564226E0,-4.311861470E-2,1.498371840E0,9.825654030E0
4.900077299E0,-4.311861470E-2,1.507953763E0,9.859190941E0
4.902590424E0,-4.790957272E-2,1.484597802E0,9.792716026E0
4.905103497E0,-5.749148503E-2,1.522326589E0,9.849609375E0
4.907616569E0,-1.976269856E-2,1.531908512E0,9.949620247E0
4.910129694E0,-2.455365472E-2,1.484597802E0,9.949620247E0
4.912642767E0,-6.707339734E-2,1.498371840E0,9.878355026E0
4.915155840E0,-4.311861470E-2,1.498371840E0,9.887936592E0
4.917668965E0,-5.749148503E-2,1.470224977E0,9.911292076E0
4.920182038E0,-5.270052701E-2,1.475015879E0,9.930456161E0
4.922695111E0,-1.497174054E-2,1.531908512E0,9.982558250E0
4.925208236E0,-5.389826838E-3,1.517535686E0,9.920874596E0
4.927721309E0,-1.018078346E-2,1.503162742E0,9.930456161E0
4.930234434E0,4.192087334E-3,1.512744665E0,9.920874596E0
4.932747507E0,3.772878647E-2,1.493580818E0,9.892727852E0
4.935260580E0,3.772878647E-2,1.546281457E0,9.883145332E0
4.937773705E0,6.168357283E-2,1.517535686E0,9.792716026E0
4.940286778E0,8.084739745E-2,1.536699533E0,9.807088852E0
4.942799851E0,8.983044326E-2,1.546281457E0,9.835235596E0
4.945312976E0,5.689261481E-2,1.536699533E0,9.807088852E0
4.947825892E0,7.126548886E-2,1.498371840E0,9.783134460E0
4.950338809E0,9.941235930E-2,1.493580818E0,9.773552895E0
4.952851778E0,8.983044326E-2,1.488789916E0,9.740614891E0
4.955364694E0,8.503948897E-2,1.522326589E0,9.726242065E0
4.957877611E0,1.377400160E-1,1.555863261E0,9.783134460E0
4.960390580E0,6.647452712E-2,1.536699533E0,9.707077980E0
4.962903497E0,1.137852296E-1,1.488789916E0,9.731032372E0
4.965416413E0,1.089942753E-1,1.522326589E0,9.683123589E0
4.967929382E0,1.377400160E-1,1.536699533E0,9.702286720E0
4.970442299E0,1.329490542E-1,1.579818130E0,9.692705154E0
4.972955215E0,1.089942753E-1,1.546281457E0,9.650185585E0
4.975468184E0,1.185761914E-1,1.517535686E0,9.640603065E0
4.977981101E0,1.569038481E-1,1.546281457E0,9.702286720E0
4.980494017E0,1.664857566E-1,1.589400053E0,9.707077980E0
4.983006986E0,1.185761914E-1,1.536699533E0,9.669348717E0
4.985519903E0,1.185761914E-1,1.560654283E0,9.702286720E0
4.988032819E0,1.233671457E-1,1.555863261E0,9.683123589E0
4.990545736E0,1.473219246E-1,1.555863261E0,9.726242065E0
4.993058705E0,1.521128863E-1,1.565445185E0,9.716659546E0
4.995571622E0,6.168357283E-2,1.608563900E0,9.740614891E0
4.998084538E0,1.281581074E-1,1.522326589E0,9.687913895E0
5.000597507E0,2.137964666E-1,1.560654283E0,9.716659546E0
5.003110424E0,1.425309777E-1,1.565445185E0,9.669348717E0
5.005623340E0,1.233671457E-1,1.560654283E0,9.664558411E0
5.008136309E0,1.233671457E-1,1.531908512E0,9.735823631E0
5.010649226E0,7.605644315E-2,1.512744665E0,9.768761635E0
5.013162142E0,8.983044326E-2,1.527117610E0,9.731032372E0
5.015675111E0,1.042033136E-1,1.575027108E0,9.697496414E0
5.018188028E0,8.503948897E-2,1.565445185E0,9.692705154E0
5.020700944E0,8.983044326E-2,1.555863261E0,9.740614891E0
5.023213913E0,1.089942753E-1,1.555863261E0,9.621439934E0
5.025726830E0,1.137852296E-1,1.536699533E0,9.654975891E0
5.028239747E0,1.042033136E-1,1.507953763E0,9.664558411E0
5.030752715E0,1.233671457E-1,1.522326589E0,9.659767151E0
5.033265632E0,1.089942753E-1,1.541490436E0,9.640603065E0
5.035778549E0,1.185761914E-1,1.512744665E0,9.659767151E0
5.038291517E0,1.233671457E-1,1.536699533E0,9.674139977E0
5.040804434E0,1.377400160E-1,1.527117610E0,9.607067108E0
5.043317351E0,1.712767184E-1,1.512744665E0,9.640603065E0
5.045830319E0,1.425309777E-1,1.512744665E0,9.664558411E0
5.048343236E0,1.808586270E-1,1.536699533E0,9.654975891E0
5.050856153E0,1.521128863E-1,1.517535686E0,9.678332329E0
5.053369122E0,1.329490542E-1,1.503162742E0,9.702286720E0
5.055882038E0,1.856495887E-1,1.498371840E0,9.740614891E0
5.058394955E0,1.952314973E-1,1.565445185E0,9.674139977E0
5.060907924E0,2.521241307E-1,1.579818130E0,9.659767151E0
5.063420840E0,2.569150627E-1,1.512744665E0,9.716659546E0
5.065933757E0,2.473331541E-1,1.560654283E0,9.664558411E0
5.068446726E0,2.473331541E-1,1.560654283E0,9.674139977E0
5.070959642E0,2.760789096E-1,1.546281457E0,9.631021500E0
5.073472559E0,3.096156120E-1,1.536699533E0,9.635812759E0
5.075985528E0,3.329715133E-1,1.517535686E0,9.669348717E0
5.078498444E0,3.473443985E-1,1.565445185E0,9.678332329E0
5.081011361E0,3.521353602E-1,1.551072359E0,9.645394325E0
5.083524330E0,3.569262922E-1,1.570236206E0,9.659767151E0
5.086037247E0,3.856720328E-1,1.565445185E0,9.678332329E0
5.088550163E0,4.048358798E-1,1.594190955E0,9.635812759E0
5.091063132E0,4.239996970E-1,1.565445185E0,9.621439934E0
5.093576049E0,4.569375217E-1,1.570236206E0,9.678332329E0
5.096088965E0,4.761013687E-1,1.618145704E0,9.659767151E0
5.098601934E0,4.808923304E-1,1.598981977E0,9.626230240E0
5.101114851E0,5.144290328E-1,1.608563900E0,9.635812759E0
5.103627767E0,5.144290328E-1,1.632518649E0,9.654975891E0
5.106140736E0,5.383837819E-1,1.575027108E0,9.645394325E0
5.108653653E0,5.527566671E-1,1.584609032E0,9.593292236E0
5.111166569E0,5.719205141E-1,1.651682496E0,9.578919411E0
5.113679538E0,5.809035301E-1,1.622936726E0,9.611857414E0
5.116192455E0,5.809035301E-1,1.575027108E0,9.674139977E0
5.118705372E0,6.048583388E-1,1.603772879E0,9.640603065E0
5.121218340E0,6.240221858E-1,1.603772879E0,9.607067108E0
5.123731257E0,6.288130879E-1,1.637309551E0,9.607067108E0
5.126244174E0,6.288130879E-1,1.627727628E0,9.583710670E0
5.128757142E0,6.144402623E-1,1.646891475E0,9.574129105E0
5.131270059E0,6.383950114E-1,1.642100573E0,9.588501930E0
5.133782976E0,6.527678967E-1,1.651682496E0,9.550173759E0
5.136295944E0,6.863046288E-1,1.651682496E0,9.535800934E0
5.138808861E0,6.288130879E-1,1.675637245E0,9.554965019E0
5.141321778E0,6.527678967E-1,1.685219169E0,9.545383453E0
5.143834747E0,6.623498201E-1,1.618145704E0,9.540592194E0
5.146347663E0,6.240221858E-1,1.656473398E0,9.564546585E0
5.148860580E0,6.863046288E-1,1.618145704E0,9.569337845E0
5.151373549E0,6.767227054E-1,1.642100573E0,9.564546585E0
5.153886465E0,6.527678967E-1,1.666055322E0,9.545383453E0
5.156399382E0,6.527678967E-1,1.646891475E0,9.545383453E0
5.158912351E0,6.096493006E-1,1.646891475E0,9.512445450E0
5.161425267E0,6.575588584E-1,1.713366032E0,9.512445450E0
5.163938184E0,6.240221858E-1,1.637309551E0,9.459744453E0
5.166451153E0,6.527678967E-1,1.704383016E0,9.522027016E0
5.168964069E0,6.288130879E-1,1.627727628E0,9.512445450E0
5.171476986E0,6.240221858E-1,1.666055322E0,9.540592194E0
5.173989955E0,6.144402623E-1,1.670846343E0,9.493281364E0
5.176502872E0,6.000673771E-1,1.642100573E0,9.540592194E0
5.179015788E0,5.719205141E-1,1.675637245E0,9.578919411E0
5.181528757E0,6.000673771E-1,1.666055322E0,9.574129105E0
5.184041674E0,5.479657054E-1,1.690010071E0,9.578919411E0
5.186554590E0,5.527566671E-1,1.646891475E0,9.602874756E0
5.189067559E0,5.383837819E-1,1.642100573E0,9.616648674E0
5.191580476E0,4.904742241E-1,1.632518649E0,9.616648674E0
5.194093392E0,4.617284834E-1,1.594190955E0,9.687913895E0
5.196606361E0,4.665194452E-1,1.603772879E0,9.687913895E0
5.199119278E0,4.856832623E-1,1.632518649E0,9.697496414E0
5.201632194E0,4.761013687E-1,1.589400053E0,9.735823631E0
5.204145163E0,4.144177735E-1,1.589400053E0,9.768761635E0
5.206658080E0,4.192087352E-1,1.608563900E0,9.773552895E0
5.209170997E0,4.144177735E-1,1.589400053E0,9.797507286E0
5.211683965E0,3.904629946E-1,1.555863261E0,9.816671371E0
5.214196882E0,3.377624750E-1,1.622936726E0,9.797507286E0
5.216709799E0,3.000336885E-1,1.598981977E0,9.816671371E0
5.219222767E0,2.952427268E-1,1.594190955E0,9.816671371E0
5.221735684E0,2.760789096E-1,1.594190955E0,9.873563766E0
5.224248601E0,3.287794292E-1,1.555863261E0,9.859190941E0
5.226761569E0,2.617060244E-1,1.522326589E0,9.849609375E0
5.229274486E0,2.808698714E-1,1.565445185E0,9.854399681E0
5.231787403E0,2.617060244E-1,1.546281457E0,9.878355026E0
5.234300372E0,2.664969862E-1,1.512744665E0,9.901710510E0
5.236813288E0,2.329602838E-1,1.531908512E0,9.873563766E0
5.239326205E0,2.137964666E-1,1.527117610E0,9.849609375E0
5.241839174E0,2.090055048E-1,1.531908512E0,9.906501770E0
5.244352090E0,2.233783752E-1,1.575027108E0,9.844818115E0
5.246865007E0,2.377512455E-1,1.512744665E0,9.816671371E0
5.249377976E0,2.281693369E-1,1.522326589E0,9.883145332E0
5.251890892E0,2.000224590E-1,1.555863261E0,9.859190941E0
5.254403809E0,2.664969862E-1,1.522326589E0,9.820862770E0
5.256916778E0,2.377512455E-1,1.498371840E0,9.840026855E0
5.259429694E0,2.329602838E-1,1.503162742E0,9.873563766E0
5.261942611E0,2.425422072E-1,1.517535686E0,9.854399681E0
5.264455580E0,2.233783752E-1,1.498371840E0,9.787925720E0
5.266968497E0,2.377512455E-1,1.493580818E0,9.787925720E0
5.269481413E0,2.137964666E-1,1.551072359E0,9.830445290E0
5.271994382E0,2.473331541E-1,1.503162742E0,9.825654030E0
5.274507299E0,2.617060244E-1,1.488789916E0,9.787925720E0
5.277020215E0,2.048134208E-1,1.517535686E0,9.768761635E0
5.279533184E0,2.137964666E-1,1.512744665E0,9.778343201E0
5.282046101E0,2.712879479E-1,1.551072359E0,9.745405197E0
5.284559017E0,2.473331541E-1,1.551072359E0,9.726242065E0
