"Time (s)","Gyroscope x (rad/s)","Gyroscope y (rad/s)","Gyroscope z (rad/s)"
1.973628100E-2,-2.877542973E-1,7.279744744E-1,2.556632459E-2
2.224925000E-2,-2.845585048E-1,7.151913047E-1,9.587371722E-3
2.476221900E-2,-2.898848355E-1,6.811028719E-1,-2.450106107E-2
2.727513500E-2,-3.069290519E-1,6.534060240E-1,-5.539370328E-2
2.978810400E-2,-3.303648531E-1,6.342312694E-1,-5.539370328E-2
3.230107300E-2,-3.474090695E-1,6.267744303E-1,-3.834948689E-2
3.481404200E-2,-3.612574935E-1,6.257091761E-1,-1.171789877E-2
3.732701000E-2,-3.761711717E-1,6.299701929E-1,2.024000697E-2
3.983997900E-2,-3.878890872E-1,6.321007609E-1,4.474106804E-2
4.235289600E-2,-4.091943502E-1,6.310355067E-1,6.604634225E-2
4.486586500E-2,-4.251733124E-1,6.278396845E-1,7.776423544E-2
4.737883300E-2,-4.443480372E-1,6.150565147E-1,8.415582031E-2
4.989180200E-2,-4.592617452E-1,6.086649299E-1,8.841687441E-2
5.240477100E-2,-4.624575377E-1,6.086649299E-1,1.033305600E-1
5.491774000E-2,-4.645880461E-1,6.225133538E-1,1.118526682E-1
5.743065600E-2,-4.613922536E-1,6.470144391E-1,1.065263525E-1
5.994362500E-2,-4.624575377E-1,6.715154648E-1,9.480845183E-2
6.245659400E-2,-4.645880461E-1,6.949512959E-1,7.669897377E-2
6.496956300E-2,-4.667185843E-1,7.077344656E-1,6.178528443E-2
6.748253100E-2,-4.645880461E-1,7.119954824E-1,5.326317623E-2
6.999544800E-2,-4.645880461E-1,7.162565589E-1,4.687159508E-2
7.250841700E-2,-4.635227919E-1,7.237133980E-1,4.261054099E-2
7.502138500E-2,-4.603269994E-1,7.354313135E-1,3.941474855E-2
7.753435400E-2,-4.581964612E-1,7.492797375E-1,3.515369445E-2
8.004732300E-2,-4.560659528E-1,7.620629072E-1,3.195790574E-2
8.256029200E-2,-4.507396221E-1,7.748460770E-1,3.089264221E-2
8.507320800E-2,-4.464785755E-1,7.876292467E-1,2.876211517E-2
8.758617700E-2,-4.422175288E-1,7.940207720E-1,2.556632459E-2
9.009914600E-2,-4.400869906E-1,7.993471026E-1,2.556632459E-2
9.261211500E-2,-4.411522448E-1,8.068039417E-1,2.663158812E-2
9.512508300E-2,-4.379564524E-1,8.142607808E-1,2.556632459E-2
9.763805200E-2,-4.368911982E-1,8.238481879E-1,2.024000697E-2
1.001509690E-1,-4.390217364E-1,8.334355354E-1,2.024000697E-2
1.026639380E-1,-4.411522448E-1,8.387618661E-1,2.237053402E-2
1.051769060E-1,-4.454133213E-1,8.494145274E-1,2.556632459E-2
1.076898750E-1,-4.496743679E-1,8.621976376E-1,3.195790574E-2
1.102028440E-1,-4.507396221E-1,8.696545362E-1,5.326317623E-2
1.127158130E-1,-4.528701603E-1,8.835029602E-1,7.243791968E-2
1.152287290E-1,-4.550006688E-1,8.994818926E-1,7.882949710E-2
1.177416980E-1,-4.581964612E-1,9.165260792E-1,7.563371211E-2
1.202546670E-1,-4.656533301E-1,9.229176641E-1,6.924212724E-2
1.227676350E-1,-4.763059616E-1,9.239829779E-1,6.285054982E-2
1.252806040E-1,-4.890891016E-1,9.197219014E-1,5.219791085E-2
1.277935210E-1,-5.018723011E-1,9.111998081E-1,3.728422523E-2
1.303064900E-1,-5.189164877E-1,9.026776552E-1,3.302317113E-2
1.328194580E-1,-5.316996574E-1,8.984166384E-1,2.982737869E-2
1.353324270E-1,-5.391564965E-1,8.952208161E-1,2.556632459E-2
1.378453960E-1,-5.476785898E-1,8.898945451E-1,2.130527049E-2
1.403583650E-1,-5.572659969E-1,8.856334686E-1,1.917474344E-2
1.428712810E-1,-5.679185987E-1,8.845682144E-1,1.491368935E-2
1.453842500E-1,-5.785712600E-1,8.813723922E-1,1.384842582E-2
1.478972190E-1,-5.892238617E-1,8.739155531E-1,1.171789877E-2
1.504101880E-1,-5.956154466E-1,8.685892224E-1,1.278316230E-2
1.529231560E-1,-5.988112688E-1,8.664587140E-1,1.917474344E-2
1.554361250E-1,-6.020070314E-1,8.558061123E-1,2.024000697E-2
1.579490420E-1,-6.041375995E-1,8.504797816E-1,2.769685164E-2
1.604620100E-1,-6.083986163E-1,8.483492136E-1,3.089264221E-2
1.629749790E-1,-6.073333621E-1,8.483492136E-1,2.982737869E-2
1.654879480E-1,-6.083986163E-1,8.483492136E-1,2.982737869E-2
1.680009170E-1,-6.083986163E-1,8.462187052E-1,2.556632459E-2
1.705138850E-1,-6.094638705E-1,8.451534510E-1,2.343579754E-2
1.730268020E-1,-6.105291843E-1,8.430229425E-1,2.024000697E-2
1.755397710E-1,-6.126596928E-1,8.398271203E-1,1.597895287E-2
1.780527400E-1,-6.115944386E-1,8.334355354E-1,1.917474344E-2
1.805657080E-1,-6.105291843E-1,8.313050270E-1,1.917474344E-2
1.830786770E-1,-6.073333621E-1,8.270439506E-1,2.556632459E-2
1.855916460E-1,-6.062681079E-1,8.259786963E-1,2.556632459E-2
1.881045630E-1,-6.062681079E-1,8.259786963E-1,2.663158812E-2
1.906175310E-1,-6.009417772E-1,8.153260946E-1,3.089264221E-2
1.931305000E-1,-5.945501924E-1,8.046734333E-1,3.195790574E-2
1.956434690E-1,-5.924196839E-1,7.972165942E-1,3.728422523E-2
1.981564380E-1,-5.913544297E-1,7.854986787E-1,3.834948689E-2
2.006693540E-1,-5.849628448E-1,7.705850005E-1,3.834948689E-2
2.031823230E-1,-5.807017684E-1,7.567365766E-1,4.474106804E-2
2.056952920E-1,-5.743101835E-1,7.396923304E-1,4.793685675E-2
2.082082600E-1,-5.657880902E-1,7.237133980E-1,4.687159508E-2
2.107212290E-1,-5.551354289E-1,7.056038976E-1,4.793685675E-2
2.132341980E-1,-5.434175730E-1,6.906902194E-1,5.432844162E-2
2.157471150E-1,-5.316996574E-1,6.747112870E-1,5.645896494E-2
2.182600830E-1,-5.189164877E-1,6.587323546E-1,6.178528443E-2
2.207730520E-1,-5.040028095E-1,6.406228542E-1,5.965475738E-2
2.232860210E-1,-4.880238473E-1,6.225133538E-1,5.965475738E-2
2.257989900E-1,-4.731101692E-1,6.075996757E-1,6.178528443E-2
2.283119580E-1,-4.592617452E-1,5.937512517E-1,6.072001904E-2
2.308248750E-1,-4.422175288E-1,5.799028277E-1,5.965475738E-2
2.333378440E-1,-4.294343591E-1,5.671196580E-1,6.072001904E-2
2.358508130E-1,-4.166511893E-1,5.490102172E-1,6.178528443E-2
2.383637810E-1,-3.974764645E-1,5.330312252E-1,6.178528443E-2
2.408767500E-1,-3.814975023E-1,5.149217844E-1,6.178528443E-2
2.433897190E-1,-3.644532859E-1,4.968122840E-1,6.178528443E-2
2.459026350E-1,-3.538006544E-1,4.797680676E-1,6.604634225E-2
2.484156040E-1,-3.356911540E-1,4.605933130E-1,6.711160392E-2
2.509285730E-1,-3.197122216E-1,4.424838424E-1,6.924212724E-2
2.534415420E-1,-3.026680052E-1,4.233090878E-1,7.350318134E-2
2.559545100E-1,-2.856237888E-1,3.988080323E-1,7.669897377E-2
2.584674790E-1,-2.664490342E-1,3.753722310E-1,8.096002787E-2
2.609803960E-1,-2.515353560E-1,3.519364297E-1,8.415582031E-2
2.634933650E-1,-2.355563939E-1,3.253048360E-1,8.735160530E-2
2.660063330E-1,-2.163816541E-1,2.976079881E-1,9.161266685E-2
2.685193020E-1,-1.993374377E-1,2.677806318E-1,9.480845183E-2
2.710322710E-1,-1.790974289E-1,2.443448156E-1,9.374319017E-2
2.735451880E-1,-1.631184816E-1,2.123869210E-1,9.587371349E-2
2.760581560E-1,-1.471395195E-1,1.836248040E-1,1.001347750E-1
2.785711250E-1,-1.322258413E-1,1.516668946E-1,9.906950593E-2
2.810840940E-1,-1.162468791E-1,1.229047775E-1,1.022652984E-1
2.835970630E-1,-9.920266271E-2,9.201213717E-2,1.001347750E-1
2.861100310E-1,-8.748476952E-2,6.644581258E-2,1.012000367E-1
2.886229480E-1,-7.683213055E-2,4.407527670E-2,9.693898261E-2
2.911359170E-1,-6.298370659E-2,2.596579865E-2,9.693898261E-2
2.936488850E-1,-5.446159840E-2,3.595264396E-3,1.001347750E-1
2.961618540E-1,-4.487422481E-2,-8.122634143E-3,1.001347750E-1
2.986748230E-1,-4.061317071E-2,-1.451421529E-2,1.001347750E-1
3.011877920E-1,-3.422158957E-2,-1.771000586E-2,1.043958217E-1
3.037007080E-1,-3.315632790E-2,-1.771000586E-2,1.086568832E-1
3.062136770E-1,-3.209106252E-2,-1.877526939E-2,1.086568832E-1
3.087266460E-1,-3.209106252E-2,-1.238368824E-2,1.171789914E-1
3.112396150E-1,-3.102580085E-2,-3.861580277E-3,1.225053072E-1
3.137525830E-1,-3.102580085E-2,3.994738217E-4,1.257010996E-1
3.162655520E-1,-3.315632790E-2,6.791055202E-3,1.310274154E-1
3.187784690E-1,-3.635211661E-2,9.986845776E-3,1.320926845E-1
3.212914380E-1,-3.848264366E-2,1.744369045E-2,1.320926845E-1
3.238044060E-1,-4.061317071E-2,2.596579865E-2,1.342232078E-1
3.263173750E-1,-4.700475186E-2,3.555316851E-2,1.320926845E-1
3.288303440E-1,-4.807001725E-2,4.407527670E-2,1.320926845E-1
3.313433130E-1,-5.126580596E-2,5.685843900E-2,1.288968921E-1
3.338562290E-1,-5.233107135E-2,6.857633591E-2,1.278316230E-1
3.363691980E-1,-5.233107135E-2,7.709844410E-2,1.257010996E-1
3.388821670E-1,-5.339633301E-2,8.562055230E-2,1.246358305E-1
3.413951350E-1,-5.446159840E-2,9.414266050E-2,1.203747764E-1
3.439081040E-1,-5.552686006E-2,1.037300378E-1,1.214400381E-1
3.464210210E-1,-5.020054430E-2,1.122521460E-1,1.203747764E-1
3.489339900E-1,-4.487422481E-2,1.165132001E-1,1.182442531E-1
3.514469580E-1,-4.700475186E-2,1.239700392E-1,1.139831990E-1
3.539599270E-1,-4.274369776E-2,1.250353009E-1,1.097221449E-1
3.564728960E-1,-3.848264366E-2,1.271658391E-1,1.033305600E-1
3.589858650E-1,-3.315632790E-2,1.261005700E-1,1.001347750E-1
3.614987810E-1,-2.783001028E-2,1.207742542E-1,9.480845183E-2
3.640117500E-1,-2.569948323E-2,1.175784618E-1,8.841687441E-2
3.665247190E-1,-1.824263856E-2,1.122521460E-1,8.309055865E-2
3.690376880E-1,-1.291632000E-2,1.037300378E-1,7.776423544E-2
3.715506560E-1,-1.078579295E-2,9.733845294E-2,7.243791968E-2
3.740636250E-1,-2.263684990E-3,9.307739884E-2,6.604634225E-2
3.765765420E-1,-1.331579406E-4,8.668582141E-2,6.178528443E-2
3.790895100E-1,8.388950489E-3,7.603318244E-2,5.752423033E-2
3.816024790E-1,1.371526811E-2,7.070686668E-2,5.432844162E-2
3.841154480E-1,1.371526811E-2,6.431528181E-2,4.900212213E-2
3.866284170E-1,1.797632128E-2,6.005423144E-2,4.367580265E-2
3.891413850E-1,2.117211185E-2,5.472791195E-2,3.941474855E-2
3.916543020E-1,2.330263890E-2,4.833633080E-2,3.728422523E-2
3.941672710E-1,2.543316595E-2,4.514054209E-2,3.515369445E-2
3.966802400E-1,2.649842948E-2,4.194474965E-2,3.195790574E-2
3.991932080E-1,2.649842948E-2,3.768369555E-2,3.089264221E-2
4.017061770E-1,2.756369300E-2,3.768369555E-2,3.089264221E-2
4.042191460E-1,3.182474896E-2,3.981422260E-2,2.556632459E-2
4.067320630E-1,2.649842948E-2,3.661843389E-2,2.450106107E-2
4.092450310E-1,2.756369300E-2,3.555316851E-2,2.450106107E-2
4.117580000E-1,2.756369300E-2,3.981422260E-2,2.130527049E-2
4.142709690E-1,2.756369300E-2,4.087948799E-2,1.917474344E-2
4.167839380E-1,2.543316595E-2,4.620580375E-2,1.917474344E-2
4.192968540E-1,3.075948358E-2,5.366265029E-2,1.384842582E-2
4.218098230E-1,2.862895653E-2,5.685843900E-2,1.065263525E-2
4.243227920E-1,3.075948358E-2,5.898896605E-2,1.171789877E-2
4.268357600E-1,3.289001063E-2,6.644581258E-2,1.384842582E-2
4.293487290E-1,3.715106472E-2,7.070686668E-2,1.384842582E-2
4.318616980E-1,3.928159177E-2,7.283739001E-2,1.171789877E-2
4.343746150E-1,4.354264587E-2,7.283739001E-2,1.491368935E-2
4.368875830E-1,4.673843831E-2,7.390265912E-2,1.597895287E-2
4.394005520E-1,5.313001946E-2,7.390265912E-2,1.597895287E-2
4.419135210E-1,5.632580817E-2,7.603318244E-2,1.491368935E-2
4.444264900E-1,5.952160060E-2,7.390265912E-2,1.917474344E-2
4.469394060E-1,6.271739304E-2,7.603318244E-2,1.810947992E-2
4.494524790E-1,6.697844714E-2,7.496792078E-2,1.491368935E-2
4.519655000E-1,7.337002456E-2,7.816371322E-2,1.597895287E-2
4.544785210E-1,7.763107866E-2,8.349002898E-2,1.597895287E-2
4.569915940E-1,8.082687110E-2,8.455529064E-2,1.810947992E-2
4.595046150E-1,8.402266353E-2,8.988160640E-2,2.556632459E-2
4.620176350E-1,8.934897929E-2,9.520792961E-2,2.663158812E-2
4.645306560E-1,9.467529505E-2,9.627319127E-2,2.450106107E-2
4.670437290E-1,1.000016108E-1,9.840371460E-2,2.982737869E-2
4.695567500E-1,1.010668799E-1,9.733845294E-2,3.089264221E-2
4.720697710E-1,1.053279340E-1,9.520792961E-2,3.408843279E-2
4.745827920E-1,1.031974033E-1,9.840371460E-2,3.834948689E-2
4.770958650E-1,1.031974033E-1,9.307739884E-2,4.154527932E-2
4.796088850E-1,1.053279340E-1,9.307739884E-2,4.687159508E-2
4.821219060E-1,1.063931957E-1,9.201213717E-2,4.900212213E-2
4.846349790E-1,1.074584574E-1,8.349002898E-2,5.006738752E-2
4.871480000E-1,1.053279340E-1,7.922897488E-2,5.326317623E-2
4.896610210E-1,1.010668799E-1,7.283739001E-2,5.645896494E-2
4.921740420E-1,9.680582583E-2,6.431528181E-2,5.539370328E-2
4.946871150E-1,9.467529505E-2,5.579317734E-2,5.432844162E-2
4.972001350E-1,8.934897929E-2,4.514054209E-2,5.326317623E-2
4.997131560E-1,8.402266353E-2,3.448790684E-2,5.113264918E-2
5.022261770E-1,7.869634032E-2,2.916158922E-2,5.219791085E-2
5.047392500E-1,7.337002456E-2,2.490053512E-2,5.432844162E-2
5.072522710E-1,6.804370880E-2,2.170474455E-2,5.113264918E-2
5.097652920E-1,6.591317803E-2,1.850895397E-2,4.793685675E-2
5.122783130E-1,6.165212765E-2,1.531316340E-2,4.900212213E-2
5.147913850E-1,5.313001946E-2,1.850895397E-2,4.900212213E-2
5.173044060E-1,5.206475407E-2,2.383527160E-2,4.367580265E-2
5.198174270E-1,5.099949241E-2,2.490053512E-2,4.687159508E-2
5.223305000E-1,4.886896536E-2,3.022685274E-2,4.474106804E-2
5.248435210E-1,4.460791126E-2,3.235737979E-2,4.261054099E-2
5.273565420E-1,4.354264587E-2,3.874896094E-2,3.941474855E-2
5.298695630E-1,4.034685716E-2,4.087948799E-2,3.834948689E-2
5.323826350E-1,4.247738421E-2,4.301001504E-2,3.728422523E-2
5.348956560E-1,4.247738421E-2,4.301001504E-2,3.621895984E-2
5.374086770E-1,4.247738421E-2,4.194474965E-2,3.728422523E-2
5.399216980E-1,4.247738421E-2,4.514054209E-2,3.089264221E-2
5.424347710E-1,4.247738421E-2,4.087948799E-2,2.982737869E-2
5.449477920E-1,4.567317292E-2,4.194474965E-2,2.663158812E-2
5.474608130E-1,4.567317292E-2,3.981422260E-2,2.450106107E-2
5.499738850E-1,4.567317292E-2,3.768369555E-2,2.343579754E-2
5.524869060E-1,4.780369997E-2,3.981422260E-2,2.237053402E-2
5.549999270E-1,4.460791126E-2,4.194474965E-2,2.450106107E-2
5.575129480E-1,4.673843831E-2,4.087948799E-2,2.130527049E-2
5.600260210E-1,4.780369997E-2,4.087948799E-2,2.237053402E-2
5.625390420E-1,4.567317292E-2,4.301001504E-2,2.343579754E-2
5.650520630E-1,4.673843831E-2,4.727106914E-2,2.130527049E-2
5.675650830E-1,4.993422702E-2,4.620580375E-2,2.237053402E-2
5.700781560E-1,4.886896536E-2,5.153212324E-2,2.343579754E-2
5.725911770E-1,4.673843831E-2,5.153212324E-2,2.237053402E-2
5.751041980E-1,4.354264587E-2,5.259738490E-2,2.343579754E-2
5.776172710E-1,4.673843831E-2,5.259738490E-2,2.343579754E-2
5.801302920E-1,5.206475407E-2,5.259738490E-2,2.130527049E-2
5.826433130E-1,5.099949241E-2,5.153212324E-2,1.810947992E-2
5.851563330E-1,4.673843831E-2,4.940159619E-2,2.130527049E-2
5.876694060E-1,4.993422702E-2,5.153212324E-2,2.130527049E-2
5.901824270E-1,5.099949241E-2,4.940159619E-2,1.597895287E-2
5.926954480E-1,4.886896536E-2,5.046685785E-2,1.597895287E-2
5.952084690E-1,5.206475407E-2,5.259738490E-2,1.810947992E-2
5.977215420E-1,5.419528112E-2,5.685843900E-2,2.130527049E-2
6.002345630E-1,5.632580817E-2,5.792370439E-2,1.810947992E-2
6.027475830E-1,5.632580817E-2,5.792370439E-2,1.810947992E-2
6.052606560E-1,5.632580817E-2,5.685843900E-2,2.024000697E-2
6.077736770E-1,5.952160060E-2,5.685843900E-2,2.130527049E-2
6.102866980E-1,6.378265470E-2,5.579317734E-2,2.024000697E-2
6.127997190E-1,6.378265470E-2,5.366265029E-2,1.810947992E-2
6.153127920E-1,6.484791636E-2,5.153212324E-2,1.597895287E-2
6.178258130E-1,6.804370880E-2,4.620580375E-2,1.384842582E-2
6.203388330E-1,7.443528622E-2,3.981422260E-2,1.384842582E-2
6.228518540E-1,7.443528622E-2,3.768369555E-2,1.278316230E-2
6.253649270E-1,7.763107866E-2,3.342264146E-2,1.171789877E-2
6.278779480E-1,8.082687110E-2,2.916158922E-2,1.171789877E-2
6.303909690E-1,8.295739442E-2,2.490053512E-2,1.278316230E-2
6.329040420E-1,8.295739442E-2,2.063948102E-2,1.278316230E-2
6.354170630E-1,9.147950262E-2,1.637842692E-2,1.171789877E-2
6.379300830E-1,9.467529505E-2,1.318263635E-2,1.491368935E-2
6.404431040E-1,9.574055672E-2,1.318263635E-2,1.171789877E-2
6.429561770E-1,9.893634915E-2,1.105210930E-2,1.278316230E-2
6.454691980E-1,1.031974033E-1,9.986845776E-3,1.704421639E-2
6.479822190E-1,1.053279340E-1,9.986845776E-3,1.704421639E-2
6.504952400E-1,1.042626649E-1,9.986845776E-3,1.491368935E-2
6.530083130E-1,1.042626649E-1,1.105210930E-2,1.597895287E-2
6.555213330E-1,1.021321416E-1,7.856318727E-3,1.810947992E-2
6.580343540E-1,1.010668799E-1,7.856318727E-3,1.597895287E-2
6.605474270E-1,9.893634915E-2,4.660528153E-3,1.384842582E-2
6.630604480E-1,9.467529505E-2,3.595264396E-3,1.491368935E-2
6.655734690E-1,9.041424096E-2,3.595264396E-3,1.491368935E-2
6.680864900E-1,8.615318686E-2,2.530000871E-3,1.491368935E-2
6.705995630E-1,8.189213276E-2,3.595264396E-3,1.384842582E-2
6.731125830E-1,7.869634032E-2,3.595264396E-3,1.278316230E-2
6.756256040E-1,7.443528622E-2,1.464737346E-3,1.384842582E-2
6.781386250E-1,6.910897046E-2,-4.926843569E-3,9.587371722E-3
6.806516980E-1,6.378265470E-2,-4.926843569E-3,9.587371722E-3
6.831647190E-1,5.419528112E-2,-3.861580277E-3,8.522108197E-3
6.856777400E-1,4.886896536E-2,-7.057370618E-3,5.326317623E-3
6.881907600E-1,4.460791126E-2,-1.025316119E-2,5.326317623E-3
6.907038330E-1,3.928159177E-2,-1.344895177E-2,3.195790574E-3
6.932168540E-1,3.608580306E-2,-1.451421529E-2,1.065263525E-3
6.957298750E-1,3.289001063E-2,-1.877526939E-2,0.000000000E0
6.982429480E-1,2.969422005E-2,-1.771000586E-2,0.000000000E0
7.007559690E-1,2.862895653E-2,-1.557947882E-2,4.261054099E-3
7.032689900E-1,2.969422005E-2,-1.451421529E-2,3.195790574E-3
7.057820100E-1,3.289001063E-2,-1.238368824E-2,4.261054099E-3
7.082950830E-1,3.395527601E-2,-1.238368824E-2,4.261054099E-3
7.108081040E-1,3.182474896E-2,-9.187897667E-3,6.391581148E-3
7.133211250E-1,3.928159177E-2,-4.926843569E-3,3.195790574E-3
7.158341460E-1,4.141211882E-2,-3.861580277E-3,2.130527049E-3
7.183472190E-1,4.460791126E-2,-7.057370618E-3,3.195790574E-3
7.208602400E-1,4.673843831E-2,-7.057370618E-3,4.261054099E-3
7.233732600E-1,4.993422702E-2,-3.861580277E-3,5.326317623E-3
7.258863330E-1,5.526054651E-2,-1.731053228E-3,6.391581148E-3
7.283993540E-1,5.952160060E-2,-1.731053228E-3,3.195790574E-3
7.309123750E-1,5.952160060E-2,-2.796316752E-3,4.261054099E-3
7.334253960E-1,6.165212765E-2,-4.926843569E-3,4.261054099E-3
7.359384690E-1,6.378265470E-2,-4.926843569E-3,4.261054099E-3
7.384514900E-1,6.804370880E-2,-1.731053228E-3,2.130527049E-3
7.409645100E-1,7.017423213E-2,-6.657897029E-4,3.195790574E-3
7.434775310E-1,7.017423213E-2,-6.657897029E-4,2.130527049E-3
7.459906040E-1,7.230476290E-2,-1.731053228E-3,0.000000000E0
7.485036250E-1,7.337002456E-2,-2.796316752E-3,0.000000000E0
7.510166460E-1,7.656581700E-2,-6.657897029E-4,1.065263525E-3
7.535297190E-1,7.869634032E-2,2.530000871E-3,-1.065263525E-3
7.560427400E-1,7.763107866E-2,3.994738217E-4,-2.130527049E-3
7.585557600E-1,7.869634032E-2,1.464737346E-3,-3.195790574E-3
7.610687810E-1,8.189213276E-2,-2.796316752E-3,-2.130527049E-3
7.635818540E-1,8.295739442E-2,-3.861580277E-3,-1.065263525E-3
7.660948750E-1,8.189213276E-2,-2.796316752E-3,-1.065263525E-3
7.686078960E-1,8.721844852E-2,-4.926843569E-3,-3.195790574E-3
7.711209170E-1,9.041424096E-2,-8.122634143E-3,-1.065263525E-3
7.736339900E-1,9.254477173E-2,-5.992107093E-3,2.130527049E-3
7.761470100E-1,9.680582583E-2,-8.122634143E-3,4.261054099E-3
7.786600310E-1,9.361003339E-2,-8.122634143E-3,4.261054099E-3
7.811731040E-1,9.467529505E-2,-7.057370618E-3,7.456844673E-3
7.836861250E-1,1.021321416E-1,-4.926843569E-3,7.456844673E-3
7.861991460E-1,1.053279340E-1,-5.992107093E-3,9.587371722E-3
7.887121670E-1,1.042626649E-1,-4.926843569E-3,9.587371722E-3
7.912252400E-1,1.074584574E-1,-2.796316752E-3,1.278316230E-2
7.937382600E-1,1.085237190E-1,-3.861580277E-3,1.384842582E-2
7.962512810E-1,1.042626649E-1,-1.731053228E-3,1.597895287E-2
7.987643020E-1,1.000016108E-1,1.464737346E-3,1.917474344E-2
8.012773750E-1,1.000016108E-1,3.595264396E-3,1.704421639E-2
8.037903960E-1,9.467529505E-2,2.530000871E-3,1.597895287E-2
8.063034170E-1,9.147950262E-2,6.791055202E-3,1.810947992E-2
8.088164900E-1,8.721844852E-2,9.986845776E-3,2.024000697E-2
8.113295100E-1,8.295739442E-2,8.921582252E-3,2.450106107E-2
8.138425310E-1,7.763107866E-2,8.921582252E-3,2.769685164E-2
8.163555520E-1,7.123950124E-2,9.986845776E-3,2.556632459E-2
8.188686250E-1,5.845633522E-2,9.986845776E-3,2.556632459E-2
8.213816460E-1,5.632580817E-2,5.725791678E-3,2.663158812E-2
8.238946670E-1,5.099949241E-2,6.791055202E-3,2.876211517E-2
8.264076880E-1,4.460791126E-2,1.464737346E-3,3.089264221E-2
8.289207600E-1,3.928159177E-2,-3.861580277E-3,2.769685164E-2
8.314337810E-1,3.182474896E-2,-5.992107093E-3,2.982737869E-2
8.339468020E-1,2.436790243E-2,-1.238368824E-2,3.195790574E-2
8.364598750E-1,1.904158480E-2,-1.451421529E-2,2.982737869E-2
8.389728960E-1,1.265000459E-2,-1.877526939E-2,3.089264221E-2
8.414859170E-1,1.051947754E-2,-2.090579644E-2,2.982737869E-2
8.439989380E-1,9.454214014E-3,-2.303632349E-2,2.769685164E-2
8.465120100E-1,3.062632633E-3,-2.303632349E-2,2.769685164E-2
8.490250310E-1,9.321055841E-4,-2.303632349E-2,2.769685164E-2
8.515380520E-1,4.127896391E-3,-2.410158701E-2,2.769685164E-2
8.540510730E-1,5.193159916E-3,-2.197105996E-2,2.769685164E-2
8.565641460E-1,4.127896391E-3,-1.877526939E-2,2.876211517E-2
8.590771670E-1,7.323686965E-3,-1.877526939E-2,3.089264221E-2
8.615901880E-1,7.323686965E-3,-1.664474234E-2,3.089264221E-2
8.641032080E-1,8.388950489E-3,-1.344895177E-2,3.621895984E-2
8.666162810E-1,9.454214014E-3,-9.187897667E-3,3.621895984E-2
8.691293020E-1,1.051947754E-2,-9.187897667E-3,3.728422523E-2
8.716423230E-1,1.051947754E-2,-9.187897667E-3,3.941474855E-2
8.741553960E-1,1.265000459E-2,-1.025316119E-2,4.367580265E-2
8.766684170E-1,1.051947754E-2,-8.122634143E-3,4.367580265E-2
8.791814380E-1,1.051947754E-2,-8.122634143E-3,4.261054099E-2
8.816944580E-1,9.454214014E-3,-8.122634143E-3,4.474106804E-2
8.842075310E-1,6.258423440E-3,-1.025316119E-2,4.900212213E-2
8.867205520E-1,5.193159916E-3,-1.025316119E-2,4.900212213E-2
8.892335730E-1,1.997369109E-3,-9.187897667E-3,4.793685675E-2
8.917465940E-1,9.321055841E-4,-9.187897667E-3,5.113264918E-2
8.942596670E-1,9.321055841E-4,-8.122634143E-3,5.432844162E-2
8.967726880E-1,-7.590002380E-3,-1.731053228E-3,5.219791085E-2
8.992857080E-1,-9.720529430E-3,-2.796316752E-3,5.326317623E-2
9.017987810E-1,-1.078579295E-2,3.994738217E-4,5.645896494E-2
9.043118020E-1,-1.291632000E-2,3.595264396E-3,5.645896494E-2
9.068248230E-1,-2.037316561E-2,3.595264396E-3,5.432844162E-2
9.093378440E-1,-2.356895618E-2,7.856318727E-3,5.432844162E-2
9.118509170E-1,-2.569948323E-2,1.211737283E-2,5.326317623E-2
9.143639380E-1,-2.889527380E-2,1.424789988E-2,5.219791085E-2
9.168769580E-1,-3.209106252E-2,1.424789988E-2,5.006738752E-2
9.193899790E-1,-3.315632790E-2,2.063948102E-2,4.900212213E-2
9.219030520E-1,-3.315632790E-2,2.277000807E-2,4.793685675E-2
9.244160730E-1,-3.528685495E-2,2.277000807E-2,5.113264918E-2
9.269290940E-1,-3.848264366E-2,2.703106217E-2,4.793685675E-2
9.294421670E-1,-3.528685495E-2,2.809632570E-2,5.006738752E-2
9.319551880E-1,-3.635211661E-2,3.129211441E-2,5.113264918E-2
9.344682080E-1,-3.635211661E-2,3.661843389E-2,5.006738752E-2
9.369812290E-1,-3.528685495E-2,3.555316851E-2,4.900212213E-2
9.394943020E-1,-3.528685495E-2,3.555316851E-2,5.326317623E-2
9.420073230E-1,-3.635211661E-2,3.874896094E-2,5.539370328E-2
9.445203440E-1,-3.848264366E-2,3.874896094E-2,5.113264918E-2
9.470334170E-1,-3.635211661E-2,3.555316851E-2,5.219791085E-2
9.495465420E-1,-3.741738200E-2,3.235737979E-2,5.539370328E-2
9.520597190E-1,-3.741738200E-2,3.235737979E-2,5.965475738E-2
9.545728440E-1,-3.422158957E-2,2.916158922E-2,5.752423033E-2
9.570860210E-1,-3.315632790E-2,2.703106217E-2,5.539370328E-2
9.595991460E-1,-3.209106252E-2,2.383527160E-2,5.965475738E-2
9.621123230E-1,-3.102580085E-2,2.596579865E-2,6.072001904E-2
9.646254480E-1,-3.209106252E-2,2.383527160E-2,5.858949572E-2
9.671386250E-1,-2.996053733E-2,2.063948102E-2,5.965475738E-2
9.696517500E-1,-2.996053733E-2,1.957421750E-2,6.285054982E-2
9.721649270E-1,-2.676474676E-2,1.424789988E-2,6.285054982E-2
9.746780520E-1,-2.569948323E-2,1.744369045E-2,6.072001904E-2
9.771912290E-1,-2.143842913E-2,1.424789988E-2,6.391581148E-2
9.797043540E-1,-2.037316561E-2,9.986845776E-3,6.498107314E-2
9.822174790E-1,-2.143842913E-2,1.211737283E-2,6.391581148E-2
9.847306560E-1,-1.824263856E-2,7.856318727E-3,6.285054982E-2
9.872437810E-1,-1.824263856E-2,6.791055202E-3,6.178528443E-2
9.897569580E-1,-1.824263856E-2,7.856318727E-3,5.965475738E-2
9.922700830E-1,-2.037316561E-2,6.791055202E-3,5.965475738E-2
9.947832600E-1,-2.143842913E-2,1.464737346E-3,5.965475738E-2
9.972963850E-1,-1.930790208E-2,-6.657897029E-4,5.858949572E-2
9.998095630E-1,-1.930790208E-2,2.530000871E-3,5.539370328E-2
1.002322688E0,-1.930790208E-2,-6.657897029E-4,5.432844162E-2
1.004835865E0,-1.824263856E-2,-1.731053228E-3,5.645896494E-2
1.007348990E0,-1.824263856E-2,-6.657897029E-4,5.326317623E-2
1.009862167E0,-1.504684705E-2,-3.861580277E-3,5.006738752E-2
1.012375292E0,-1.398158353E-2,-5.992107093E-3,4.900212213E-2
1.014888469E0,-1.291632000E-2,-6.125265267E-3,4.793685675E-2
1.017401594E0,-1.291632000E-2,-1.145158336E-2,4.340948910E-2
1.019914771E0,-1.078579295E-2,-1.251684688E-2,4.234422371E-2
1.022427896E0,-9.720529430E-3,-1.251684688E-2,3.808316961E-2
1.024941021E0,-1.078579295E-2,-1.251684688E-2,3.808316961E-2
1.027454198E0,-8.655265905E-3,-1.464737393E-2,3.382211551E-2
1.029967323E0,-4.394211806E-3,-1.358211040E-2,3.382211551E-2
1.032480500E0,-4.394211806E-3,-1.358211040E-2,3.275685385E-2
1.034993625E0,-4.394211806E-3,-1.251684688E-2,3.169158846E-2
1.037506802E0,-7.590002380E-3,-1.358211040E-2,3.062632680E-2
1.040019927E0,-6.524738856E-3,-1.145158336E-2,2.849579975E-2
1.042533104E0,-3.328948515E-3,-8.255792782E-3,2.423474565E-2
1.045046229E0,-5.459475331E-3,-7.190528791E-3,2.423474565E-2
1.047559406E0,-5.459475331E-3,-6.125265267E-3,2.530000918E-2
1.050072531E0,-8.655265905E-3,-7.989476435E-4,2.423474565E-2
1.052585708E0,-8.655265905E-3,-2.929474693E-3,2.210421860E-2
1.055098833E0,-1.078579295E-2,-2.929474693E-3,1.890842803E-2
1.057612010E0,-1.291632000E-2,-7.989476435E-4,1.784316450E-2
1.060125135E0,-1.185105648E-2,2.396842930E-3,1.677790098E-2
1.062638313E0,-1.824263856E-2,-7.989476435E-4,1.677790098E-2
1.065151438E0,-2.463421971E-2,-7.989476435E-4,1.571263745E-2
1.067664563E0,-2.356895618E-2,2.396842930E-3,1.358211040E-2
1.070177740E0,-2.463421971E-2,3.462106455E-3,1.251684688E-2
1.072690865E0,-2.889527380E-2,1.331579406E-3,1.038631983E-2
1.075204042E0,-3.209106252E-2,3.462106455E-3,7.190528791E-3
1.077717167E0,-2.996053733E-2,7.723160554E-3,5.060001742E-3
1.080230344E0,-3.209106252E-2,7.723160554E-3,3.994738217E-3
1.082743469E0,-3.209106252E-2,8.788423613E-3,1.864211168E-3
1.085256646E0,-3.315632790E-2,6.657897029E-3,6.125265267E-3
1.087769771E0,-3.422158957E-2,8.788423613E-3,2.929474693E-3
1.090282948E0,-3.635211661E-2,9.853687137E-3,-2.663158812E-4
1.092796073E0,-3.422158957E-2,6.657897029E-3,-3.462106455E-3
1.095309250E0,-3.528685495E-2,6.657897029E-3,-3.462106455E-3
1.097822375E0,-3.209106252E-2,3.462106455E-3,-4.527369980E-3
1.100335552E0,-2.996053733E-2,1.331579406E-3,-4.527369980E-3
1.102848677E0,-3.102580085E-2,-1.864211168E-3,-5.592633504E-3
1.105361854E0,-2.996053733E-2,-1.864211168E-3,-4.527369980E-3
1.107874979E0,-2.889527380E-2,-2.929474693E-3,-3.462106455E-3
1.110388104E0,-2.996053733E-2,-2.929474693E-3,-5.592633504E-3
1.112901281E0,-3.422158957E-2,-5.060001742E-3,-6.657897029E-3
1.115414406E0,-3.528685495E-2,-5.060001742E-3,-7.723160554E-3
1.117932767E0,-3.635211661E-2,-5.060001742E-3,-8.788423613E-3
1.120445892E0,-3.635211661E-2,-7.190528791E-3,-6.657897029E-3
1.122959069E0,-3.954790905E-2,-8.255792782E-3,-5.592633504E-3
1.125472194E0,-4.061317071E-2,-7.190528791E-3,-1.091895066E-2
1.127985372E0,-4.167843610E-2,-2.929474693E-3,-1.091895066E-2
1.130498497E0,-4.061317071E-2,-7.989476435E-4,-1.304947771E-2
1.133011674E0,-4.380896315E-2,2.396842930E-3,-1.198421419E-2
1.135524799E0,-4.380896315E-2,3.462106455E-3,-1.624526829E-2
1.138037976E0,-4.167843610E-2,5.592633504E-3,-1.411474124E-2
1.140551101E0,-4.380896315E-2,7.723160554E-3,-9.853687137E-3
1.143064278E0,-4.167843610E-2,6.657897029E-3,-1.304947771E-2
1.145577403E0,-4.380896315E-2,7.723160554E-3,-1.411474124E-2
1.148090580E0,-4.061317071E-2,7.723160554E-3,-1.198421419E-2
1.150603705E0,-3.741738200E-2,4.527369980E-3,-1.198421419E-2
1.153116830E0,-3.848264366E-2,2.396842930E-3,-9.853687137E-3
1.155630007E0,-3.315632790E-2,-7.989476435E-4,-1.091895066E-2
1.158143132E0,-3.102580085E-2,-2.929474693E-3,-8.788423613E-3
1.160656309E0,-2.783001028E-2,-3.994738217E-3,-5.592633504E-3
1.163169434E0,-2.569948323E-2,-5.060001742E-3,-8.788423613E-3
1.165682611E0,-2.143842913E-2,-8.255792782E-3,-7.723160554E-3
1.168195736E0,-1.398158353E-2,-1.038631983E-2,-3.462106455E-3
1.170708913E0,-1.291632000E-2,-5.060001742E-3,-1.331579406E-3
1.173222038E0,-7.590002380E-3,-6.125265267E-3,-2.663158812E-4
1.175735215E0,-6.524738856E-3,-5.060001742E-3,1.864211168E-3
1.178248340E0,-2.263684990E-3,-8.255792782E-3,5.060001742E-3
1.180761517E0,1.997369109E-3,-3.994738217E-3,8.255792782E-3
1.183274642E0,5.193159916E-3,-1.864211168E-3,1.145158336E-2
1.185787819E0,5.193159916E-3,2.663158812E-4,1.145158336E-2
1.188300944E0,9.454214014E-3,-7.989476435E-4,9.321056306E-3
1.190814122E0,1.158474106E-2,3.462106455E-3,1.145158336E-2
1.193327247E0,1.478053164E-2,2.663158812E-4,1.358211040E-2
1.195840424E0,1.584579423E-2,2.663158812E-4,1.251684688E-2
1.198353549E0,1.904158480E-2,2.663158812E-4,1.464737393E-2
1.200866674E0,1.691105776E-2,-2.929474693E-3,1.677790098E-2
1.203379851E0,1.797632128E-2,-7.190528791E-3,1.784316450E-2
1.205892976E0,1.691105776E-2,-7.190528791E-3,1.571263745E-2
1.208406153E0,1.478053164E-2,-9.321056306E-3,1.571263745E-2
1.210919278E0,1.478053164E-2,-1.251684688E-2,1.677790098E-2
1.213432455E0,1.158474106E-2,-1.677790098E-2,1.784316450E-2
1.215945580E0,4.127896391E-3,-1.677790098E-2,1.890842803E-2
1.218458757E0,-2.263684990E-3,-1.890842803E-2,1.997369155E-2
1.220971882E0,-7.590002380E-3,-2.103895508E-2,1.997369155E-2
1.223485059E0,-1.185105648E-2,-2.316948213E-2,1.997369155E-2
1.225998184E0,-1.824263856E-2,-2.423474565E-2,1.997369155E-2
1.228511361E0,-2.037316561E-2,-2.423474565E-2,1.997369155E-2
1.231024486E0,-2.569948323E-2,-2.103895508E-2,1.997369155E-2
1.233537663E0,-3.102580085E-2,-1.784316450E-2,1.571263745E-2
1.236050788E0,-3.528685495E-2,-1.784316450E-2,1.997369155E-2
1.238563965E0,-3.635211661E-2,-1.571263745E-2,1.890842803E-2
1.241077090E0,-3.848264366E-2,-1.358211040E-2,1.571263745E-2
1.243590215E0,-4.061317071E-2,-1.464737393E-2,1.464737393E-2
1.246103392E0,-3.954790905E-2,-1.464737393E-2,1.145158336E-2
1.248616517E0,-4.061317071E-2,-1.358211040E-2,9.321056306E-3
1.251129694E0,-3.954790905E-2,-1.464737393E-2,9.321056306E-3
1.253642819E0,-4.061317071E-2,-1.358211040E-2,8.255792782E-3
1.256155997E0,-4.061317071E-2,-1.784316450E-2,9.321056306E-3
1.258669122E0,-3.741738200E-2,-1.890842803E-2,9.321056306E-3
1.261182299E0,-3.848264366E-2,-1.997369155E-2,6.125265267E-3
1.263695424E0,-3.741738200E-2,-1.784316450E-2,9.321056306E-3
1.266208601E0,-3.635211661E-2,-1.677790098E-2,1.038631983E-2
1.268721726E0,-3.635211661E-2,-1.890842803E-2,1.145158336E-2
1.271234903E0,-3.102580085E-2,-2.103895508E-2,1.145158336E-2
1.273748028E0,-3.209106252E-2,-1.997369155E-2,1.038631983E-2
1.276261205E0,-3.209106252E-2,-1.677790098E-2,1.358211040E-2
1.278774330E0,-3.422158957E-2,-1.571263745E-2,1.677790098E-2
1.281287507E0,-3.315632790E-2,-1.571263745E-2,1.784316450E-2
1.283800632E0,-3.209106252E-2,-1.251684688E-2,1.997369155E-2
1.286313757E0,-3.102580085E-2,-1.358211040E-2,2.103895508E-2
1.288826934E0,-2.889527380E-2,-1.251684688E-2,2.210421860E-2
1.291340059E0,-2.569948323E-2,-1.358211040E-2,1.890842803E-2
1.293853236E0,-2.676474676E-2,-1.038631983E-2,2.103895508E-2
1.296366361E0,-2.463421971E-2,-9.321056306E-3,2.316948213E-2
1.298879538E0,-2.250369266E-2,-1.464737393E-2,2.316948213E-2
1.301392663E0,-2.037316561E-2,-1.571263745E-2,2.423474565E-2
1.303905840E0,-1.717737503E-2,-1.358211040E-2,2.530000918E-2
1.306418965E0,-1.717737503E-2,-1.358211040E-2,2.210421860E-2
1.308932142E0,-1.611211151E-2,-1.571263745E-2,2.316948213E-2
1.311445267E0,-1.504684705E-2,-1.890842803E-2,1.677790098E-2
1.313958444E0,-1.185105648E-2,-1.890842803E-2,1.890842803E-2
1.316471569E0,-6.524738856E-3,-1.890842803E-2,2.103895508E-2
1.318984747E0,-6.524738856E-3,-1.997369155E-2,1.784316450E-2
1.321497872E0,-5.459475331E-3,-1.677790098E-2,1.358211040E-2
1.324011049E0,-2.263684990E-3,-1.784316450E-2,1.571263745E-2
1.326524174E0,-1.331579406E-4,-1.677790098E-2,1.571263745E-2
1.329037299E0,-1.331579406E-4,-1.571263745E-2,1.251684688E-2
1.331550476E0,9.321055841E-4,-1.784316450E-2,1.464737393E-2
1.334063601E0,4.127896391E-3,-1.784316450E-2,1.145158336E-2
1.336576778E0,5.193159916E-3,-1.784316450E-2,1.145158336E-2
1.339089903E0,6.258423440E-3,-1.890842803E-2,1.145158336E-2
1.341603080E0,5.193159916E-3,-1.571263745E-2,1.145158336E-2
1.344116205E0,6.258423440E-3,-1.464737393E-2,7.190528791E-3
1.346629382E0,7.323686965E-3,-1.464737393E-2,8.255792782E-3
1.349142507E0,8.388950489E-3,-1.358211040E-2,1.145158336E-2
1.351655684E0,9.454214014E-3,-1.145158336E-2,1.145158336E-2
1.354168809E0,1.158474106E-2,-8.255792782E-3,1.145158336E-2
1.356681986E0,1.371526811E-2,-8.255792782E-3,1.145158336E-2
1.359195111E0,1.371526811E-2,-1.038631983E-2,1.251684688E-2
1.361708288E0,1.478053164E-2,-5.060001742E-3,1.251684688E-2
1.364221413E0,1.265000459E-2,-5.060001742E-3,1.677790098E-2
1.366734590E0,1.265000459E-2,-6.125265267E-3,1.464737393E-2
1.369247715E0,1.478053164E-2,-2.929474693E-3,1.358211040E-2
1.371760840E0,1.478053164E-2,-3.994738217E-3,1.571263745E-2
1.374274017E0,1.584579423E-2,-5.060001742E-3,1.464737393E-2
1.376787142E0,1.584579423E-2,-8.255792782E-3,1.145158336E-2
1.379300319E0,1.478053164E-2,-8.255792782E-3,1.251684688E-2
1.381813444E0,1.478053164E-2,-9.321056306E-3,1.251684688E-2
1.384326622E0,1.584579423E-2,-7.190528791E-3,1.358211040E-2
1.386839747E0,1.371526811E-2,-1.038631983E-2,1.358211040E-2
1.389352924E0,1.584579423E-2,-1.251684688E-2,1.251684688E-2
1.391866049E0,1.371526811E-2,-1.145158336E-2,1.038631983E-2
1.394379226E0,1.158474106E-2,-1.145158336E-2,9.321056306E-3
1.396892351E0,9.454214014E-3,-1.251684688E-2,9.321056306E-3
1.399405528E0,7.323686965E-3,-1.038631983E-2,1.038631983E-2
1.401918653E0,9.454214014E-3,-8.255792782E-3,1.038631983E-2
1.404431830E0,9.454214014E-3,-9.321056306E-3,6.125265267E-3
1.406944955E0,8.388950489E-3,-1.864211168E-3,7.190528791E-3
1.409458132E0,6.258423440E-3,-2.929474693E-3,9.321056306E-3
1.411971257E0,7.323686965E-3,-1.864211168E-3,7.190528791E-3
1.414484382E0,7.323686965E-3,3.462106455E-3,7.190528791E-3
1.416997559E0,6.258423440E-3,3.462106455E-3,6.125265267E-3
1.419510684E0,8.388950489E-3,4.527369980E-3,8.255792782E-3
1.422023861E0,7.323686965E-3,9.853687137E-3,9.321056306E-3
1.424536986E0,9.454214014E-3,9.853687137E-3,7.190528791E-3
1.427050163E0,1.158474106E-2,1.091895066E-2,7.190528791E-3
1.429563288E0,1.158474106E-2,1.411474124E-2,8.255792782E-3
1.432076465E0,1.051947754E-2,1.198421419E-2,1.038631983E-2
1.434589590E0,9.454214014E-3,1.304947771E-2,1.145158336E-2
1.437102767E0,1.051947754E-2,1.411474124E-2,1.145158336E-2
1.439615892E0,1.265000459E-2,1.411474124E-2,1.038631983E-2
1.442129069E0,1.051947754E-2,1.624526829E-2,1.464737393E-2
1.444642194E0,1.158474106E-2,1.518000476E-2,1.358211040E-2
1.447155215E0,1.051947754E-2,1.837579533E-2,1.358211040E-2
1.449668184E0,1.051947754E-2,1.837579533E-2,1.677790098E-2
1.452181101E0,1.051947754E-2,2.050632238E-2,1.358211040E-2
1.454694017E0,6.258423440E-3,2.050632238E-2,1.890842803E-2
1.457206934E0,6.258423440E-3,1.837579533E-2,1.464737393E-2
1.459719903E0,8.388950489E-3,1.837579533E-2,1.464737393E-2
1.462232819E0,6.258423440E-3,2.370211296E-2,1.997369155E-2
1.464745736E0,9.321055841E-4,2.157158591E-2,1.464737393E-2
1.467258705E0,-2.263684990E-3,2.050632238E-2,9.321056306E-3
1.469771622E0,-2.263684990E-3,2.157158591E-2,1.038631983E-2
1.472284538E0,-3.328948515E-3,2.263684943E-2,8.255792782E-3
1.474797455E0,-7.590002380E-3,2.050632238E-2,5.060001742E-3
1.477310424E0,-9.720529430E-3,2.263684943E-2,1.864211168E-3
1.479823340E0,-7.590002380E-3,2.157158591E-2,2.929474693E-3
1.482336257E0,-1.291632000E-2,1.624526829E-2,7.989476435E-4
1.484849226E0,-1.291632000E-2,2.050632238E-2,-2.663158812E-4
1.487362142E0,-1.185105648E-2,2.263684943E-2,-1.331579406E-3
1.489875059E0,-1.504684705E-2,1.731053181E-2,-2.396842930E-3
1.492388028E0,-1.504684705E-2,1.624526829E-2,1.864211168E-3
1.494900944E0,-1.611211151E-2,1.837579533E-2,-2.663158812E-4
1.497413861E0,-1.291632000E-2,1.411474124E-2,-5.592633504E-3
1.499926778E0,-9.720529430E-3,1.411474124E-2,-7.723160554E-3
1.502439747E0,-9.720529430E-3,1.411474124E-2,-7.723160554E-3
1.504952663E0,-1.185105648E-2,1.518000476E-2,-6.657897029E-3
1.507465580E0,-1.078579295E-2,1.518000476E-2,-6.657897029E-3
1.509978549E0,-1.185105648E-2,1.944105886E-2,-6.657897029E-3
1.512491465E0,-1.185105648E-2,2.050632238E-2,-3.462106455E-3
1.515004382E0,-1.078579295E-2,1.944105886E-2,-5.592633504E-3
1.517517299E0,-1.078579295E-2,1.944105886E-2,-3.462106455E-3
1.520030267E0,-1.185105648E-2,2.157158591E-2,-1.331579406E-3
1.522543184E0,-1.291632000E-2,2.157158591E-2,-3.462106455E-3
1.525056101E0,-1.611211151E-2,1.624526829E-2,-3.462106455E-3
1.527569069E0,-1.824263856E-2,1.624526829E-2,-2.663158812E-4
1.530081986E0,-1.717737503E-2,1.411474124E-2,-2.663158812E-4
1.532594903E0,-2.037316561E-2,1.304947771E-2,-2.396842930E-3
1.535107819E0,-2.356895618E-2,8.788423613E-3,-5.592633504E-3
1.537620788E0,-2.356895618E-2,8.788423613E-3,-4.527369980E-3
1.540133705E0,-2.356895618E-2,1.411474124E-2,-2.396842930E-3
1.542646622E0,-2.889527380E-2,1.624526829E-2,-1.331579406E-3
1.545159590E0,-2.996053733E-2,1.518000476E-2,-2.663158812E-4
1.547672507E0,-2.676474676E-2,1.624526829E-2,-1.331579406E-3
1.550185424E0,-2.996053733E-2,1.731053181E-2,2.929474693E-3
1.552698392E0,-2.996053733E-2,1.837579533E-2,2.929474693E-3
1.555211309E0,-2.783001028E-2,1.518000476E-2,1.864211168E-3
1.557724226E0,-2.783001028E-2,1.304947771E-2,3.994738217E-3
1.560237142E0,-2.676474676E-2,1.198421419E-2,5.060001742E-3
1.562750111E0,-2.463421971E-2,1.411474124E-2,5.060001742E-3
1.565263028E0,-2.143842913E-2,1.198421419E-2,2.929474693E-3
1.567775944E0,-2.143842913E-2,6.657897029E-3,5.060001742E-3
1.570288913E0,-1.717737503E-2,1.304947771E-2,6.125265267E-3
1.572801830E0,-1.504684705E-2,1.411474124E-2,7.190528791E-3
1.575314747E0,-1.291632000E-2,1.411474124E-2,6.125265267E-3
1.577827663E0,-1.078579295E-2,1.411474124E-2,8.255792782E-3
1.580340632E0,-9.720529430E-3,1.518000476E-2,6.125265267E-3
1.582853549E0,-8.655265905E-3,1.198421419E-2,5.060001742E-3
1.585366465E0,-5.459475331E-3,1.304947771E-2,7.190528791E-3
1.587879434E0,-6.524738856E-3,1.198421419E-2,6.125265267E-3
1.590392351E0,-6.524738856E-3,1.091895066E-2,6.125265267E-3
1.592905267E0,-6.524738856E-3,1.091895066E-2,2.929474693E-3
1.595418236E0,-5.459475331E-3,4.527369980E-3,3.994738217E-3
1.597931153E0,-6.524738856E-3,3.462106455E-3,3.994738217E-3
1.600444069E0,-5.459475331E-3,7.723160554E-3,7.989476435E-4
1.602956986E0,-7.590002380E-3,5.592633504E-3,7.989476435E-4
1.605469955E0,-1.078579295E-2,3.462106455E-3,-4.527369980E-3
1.607982872E0,-1.078579295E-2,1.331579406E-3,-2.396842930E-3
1.610495788E0,-1.078579295E-2,2.663158812E-4,-3.462106455E-3
1.613008757E0,-1.398158353E-2,2.396842930E-3,-4.527369980E-3
1.615521674E0,-1.291632000E-2,1.331579406E-3,-4.527369980E-3
1.618034590E0,-1.398158353E-2,2.396842930E-3,-5.592633504E-3
1.620547507E0,-1.504684705E-2,5.592633504E-3,-8.788423613E-3
1.623060476E0,-1.611211151E-2,6.657897029E-3,-8.788423613E-3
1.625573392E0,-1.504684705E-2,3.462106455E-3,-9.853687137E-3
1.628086309E0,-1.185105648E-2,7.723160554E-3,-8.788423613E-3
1.630599278E0,-9.720529430E-3,8.788423613E-3,-4.527369980E-3
1.633112194E0,-1.078579295E-2,9.853687137E-3,-2.396842930E-3
1.635625111E0,-7.590002380E-3,8.788423613E-3,-6.657897029E-3
1.638138028E0,-5.459475331E-3,1.304947771E-2,-6.657897029E-3
1.640650997E0,-1.331579406E-4,1.304947771E-2,-5.592633504E-3
1.643163913E0,-1.331579406E-4,1.731053181E-2,-2.396842930E-3
1.645676830E0,1.997369109E-3,1.624526829E-2,-2.396842930E-3
1.648189799E0,9.454214014E-3,1.304947771E-2,-5.592633504E-3
1.650702715E0,1.158474106E-2,7.723160554E-3,-5.592633504E-3
1.653215632E0,7.323686965E-3,8.788423613E-3,-2.396842930E-3
1.655728601E0,9.454214014E-3,6.657897029E-3,-3.462106455E-3
1.658241517E0,1.051947754E-2,4.527369980E-3,-2.396842930E-3
1.660754434E0,9.454214014E-3,1.331579406E-3,-1.331579406E-3
1.663267351E0,7.323686965E-3,-7.989476435E-4,-2.396842930E-3
1.665780319E0,8.388950489E-3,-5.060001742E-3,-3.462106455E-3
1.668293236E0,1.051947754E-2,-6.125265267E-3,-2.663158812E-4
1.670806153E0,1.051947754E-2,-6.125265267E-3,-2.663158812E-4
1.673319122E0,1.051947754E-2,-8.255792782E-3,7.989476435E-4
1.675832038E0,1.051947754E-2,-1.145158336E-2,7.989476435E-4
1.678344955E0,8.388950489E-3,-1.358211040E-2,3.994738217E-3
1.680857872E0,8.388950489E-3,-1.038631983E-2,2.929474693E-3
1.683370840E0,6.258423440E-3,-9.321056306E-3,-1.331579406E-3
1.685883757E0,6.258423440E-3,-6.125265267E-3,-2.663158812E-4
1.688396674E0,5.193159916E-3,-1.864211168E-3,3.994738217E-3
1.690909642E0,3.062632633E-3,2.663158812E-4,3.994738217E-3
1.693422559E0,4.127896391E-3,1.331579406E-3,1.864211168E-3
1.695935476E0,1.997369109E-3,3.462106455E-3,1.864211168E-3
1.698448444E0,-1.198421465E-3,3.462106455E-3,2.929474693E-3
1.700961361E0,-3.328948515E-3,5.592633504E-3,5.060001742E-3
1.703474278E0,-5.459475331E-3,4.527369980E-3,3.994738217E-3
1.705987194E0,-2.263684990E-3,2.663158812E-4,5.060001742E-3
1.708500163E0,-1.198421465E-3,1.331579406E-3,7.190528791E-3
1.711013080E0,-1.331579406E-4,2.396842930E-3,7.190528791E-3
1.713525997E0,-1.331579406E-4,-7.989476435E-4,7.190528791E-3
1.716038965E0,-1.331579406E-4,2.663158812E-4,5.060001742E-3
1.718551882E0,9.321055841E-4,-1.864211168E-3,8.255792782E-3
1.721064799E0,-1.198421465E-3,-2.929474693E-3,1.038631983E-2
1.723577715E0,3.062632633E-3,2.663158812E-4,8.255792782E-3
1.726090684E0,5.193159916E-3,-2.929474693E-3,1.038631983E-2
1.728603601E0,6.258423440E-3,-2.929474693E-3,1.251684688E-2
1.731116517E0,4.127896391E-3,-7.989476435E-4,1.251684688E-2
1.733629486E0,1.997369109E-3,-1.864211168E-3,1.251684688E-2
1.736142403E0,4.127896391E-3,-7.989476435E-4,1.251684688E-2
1.738655319E0,4.127896391E-3,-2.929474693E-3,1.358211040E-2
1.741168236E0,3.062632633E-3,-6.125265267E-3,1.571263745E-2
1.743681205E0,3.062632633E-3,-6.125265267E-3,1.251684688E-2
1.746194122E0,5.193159916E-3,-6.125265267E-3,1.464737393E-2
1.748707038E0,3.062632633E-3,-7.190528791E-3,1.358211040E-2
1.751220007E0,1.997369109E-3,-1.251684688E-2,1.358211040E-2
1.753732924E0,9.321055841E-4,-1.145158336E-2,1.464737393E-2
1.756245840E0,3.062632633E-3,-1.358211040E-2,1.571263745E-2
1.758758809E0,3.062632633E-3,-1.464737393E-2,1.251684688E-2
1.761271726E0,6.258423440E-3,-1.464737393E-2,1.358211040E-2
1.763784642E0,6.258423440E-3,-1.571263745E-2,1.571263745E-2
1.766297559E0,7.323686965E-3,-1.571263745E-2,1.677790098E-2
1.768810528E0,7.323686965E-3,-1.677790098E-2,1.464737393E-2
1.771323444E0,9.454214014E-3,-1.677790098E-2,1.571263745E-2
1.773836361E0,1.371526811E-2,-1.358211040E-2,1.677790098E-2
1.776349330E0,1.158474106E-2,-1.145158336E-2,1.677790098E-2
1.778862247E0,9.454214014E-3,-1.358211040E-2,1.784316450E-2
1.781375163E0,1.371526811E-2,-7.190528791E-3,1.571263745E-2
1.783888080E0,1.478053164E-2,-9.321056306E-3,1.784316450E-2
1.786401049E0,1.691105776E-2,-9.321056306E-3,1.677790098E-2
1.788913965E0,1.691105776E-2,-9.321056306E-3,1.677790098E-2
1.791426882E0,1.584579423E-2,-7.190528791E-3,1.464737393E-2
1.793939851E0,1.584579423E-2,-6.125265267E-3,1.358211040E-2
1.796452767E0,1.691105776E-2,-1.864211168E-3,1.358211040E-2
1.798965684E0,1.584579423E-2,-7.989476435E-4,1.251684688E-2
1.801478653E0,1.797632128E-2,2.663158812E-4,1.251684688E-2
1.803991569E0,1.904158480E-2,3.462106455E-3,1.038631983E-2
1.806504486E0,2.010684833E-2,6.657897029E-3,5.060001742E-3
1.809017403E0,2.330263890E-2,9.853687137E-3,5.060001742E-3
1.811530372E0,2.436790243E-2,1.518000476E-2,1.864211168E-3
1.814043288E0,2.330263890E-2,1.518000476E-2,7.989476435E-4
1.816556205E0,2.649842948E-2,1.518000476E-2,-2.396842930E-3
1.819069174E0,2.649842948E-2,1.731053181E-2,-6.657897029E-3
1.821582090E0,2.862895653E-2,1.944105886E-2,-8.788423613E-3
1.824095007E0,3.075948358E-2,2.050632238E-2,-1.304947771E-2
1.826607924E0,2.969422005E-2,2.157158591E-2,-1.411474124E-2
1.829120892E0,3.075948358E-2,2.157158591E-2,-1.411474124E-2
1.831633809E0,3.075948358E-2,2.157158591E-2,-1.944105886E-2
1.834146726E0,3.182474896E-2,1.944105886E-2,-1.944105886E-2
1.836659694E0,3.289001063E-2,1.837579533E-2,-2.050632238E-2
1.839172611E0,3.075948358E-2,1.837579533E-2,-2.157158591E-2
1.841685528E0,3.289001063E-2,1.731053181E-2,-2.370211296E-2
1.844198444E0,3.075948358E-2,1.411474124E-2,-2.263684943E-2
1.846711413E0,2.969422005E-2,1.091895066E-2,-2.157158591E-2
1.849224330E0,2.862895653E-2,1.091895066E-2,-2.583264001E-2
1.851737247E0,2.543316595E-2,7.723160554E-3,-2.263684943E-2
1.854250215E0,2.756369300E-2,5.592633504E-3,-1.944105886E-2
1.856763132E0,2.756369300E-2,1.331579406E-3,-1.944105886E-2
1.859276049E0,2.330263890E-2,2.663158812E-4,-1.731053181E-2
1.861789017E0,2.010684833E-2,-2.929474693E-3,-2.050632238E-2
1.864301934E0,2.010684833E-2,-5.060001742E-3,-1.944105886E-2
1.866814851E0,2.223737538E-2,-6.125265267E-3,-1.731053181E-2
1.869327767E0,1.797632128E-2,-6.125265267E-3,-1.518000476E-2
1.871840736E0,1.691105776E-2,-8.255792782E-3,-1.624526829E-2
1.874353653E0,1.584579423E-2,-9.321056306E-3,-1.624526829E-2
1.876866569E0,1.371526811E-2,-5.060001742E-3,-1.304947771E-2
1.879379538E0,1.371526811E-2,-5.060001742E-3,-1.411474124E-2
1.881892455E0,1.265000459E-2,-6.125265267E-3,-8.788423613E-3
1.884405372E0,1.584579423E-2,-7.989476435E-4,-7.723160554E-3
1.886918288E0,1.584579423E-2,3.462106455E-3,-6.657897029E-3
1.889431257E0,1.797632128E-2,-1.864211168E-3,-5.592633504E-3
1.891944174E0,1.691105776E-2,-7.989476435E-4,-1.331579406E-3
1.894457090E0,1.797632128E-2,1.331579406E-3,-1.331579406E-3
1.896970059E0,1.797632128E-2,1.331579406E-3,-1.331579406E-3
1.899482976E0,1.904158480E-2,2.663158812E-4,7.989476435E-4
1.901995892E0,2.010684833E-2,-7.989476435E-4,-1.331579406E-3
1.904508861E0,2.223737538E-2,-1.864211168E-3,-2.396842930E-3
1.907021778E0,2.436790243E-2,-3.994738217E-3,-2.663158812E-4
1.909534694E0,2.543316595E-2,-5.060001742E-3,-1.331579406E-3
1.912047611E0,2.010684833E-2,-5.060001742E-3,-1.331579406E-3
1.914560580E0,2.117211185E-2,-7.190528791E-3,7.989476435E-4
1.917073497E0,2.117211185E-2,-5.060001742E-3,1.864211168E-3
1.919586413E0,2.010684833E-2,-1.864211168E-3,-1.331579406E-3
1.922099382E0,2.117211185E-2,2.663158812E-4,-2.663158812E-4
1.924612299E0,2.223737538E-2,1.331579406E-3,1.864211168E-3
1.927125215E0,2.010684833E-2,-7.989476435E-4,-2.663158812E-4
1.929638132E0,2.436790243E-2,4.527369980E-3,7.989476435E-4
1.932151101E0,2.436790243E-2,2.396842930E-3,2.929474693E-3
1.934664017E0,2.223737538E-2,3.462106455E-3,5.060001742E-3
1.937176934E0,2.436790243E-2,5.592633504E-3,5.060001742E-3
1.939689903E0,2.330263890E-2,1.091895066E-2,1.864211168E-3
1.942202819E0,2.436790243E-2,7.723160554E-3,1.864211168E-3
1.944715736E0,2.543316595E-2,7.723160554E-3,2.929474693E-3
1.947228705E0,2.649842948E-2,9.853687137E-3,2.929474693E-3
1.949741726E0,2.649842948E-2,1.411474124E-2,2.929474693E-3
1.952254694E0,2.649842948E-2,1.304947771E-2,1.864211168E-3
1.954767715E0,2.756369300E-2,1.624526829E-2,1.864211168E-3
1.957280684E0,2.649842948E-2,1.731053181E-2,3.994738217E-3
1.959793705E0,2.543316595E-2,2.050632238E-2,2.929474693E-3
1.962306674E0,2.649842948E-2,1.837579533E-2,1.864211168E-3
1.964819694E0,2.330263890E-2,1.837579533E-2,7.989476435E-4
1.967332663E0,1.904158480E-2,1.944105886E-2,7.989476435E-4
1.969845632E0,2.010684833E-2,1.198421419E-2,7.989476435E-4
1.972358653E0,1.371526811E-2,7.723160554E-3,7.989476435E-4
1.974871622E0,6.258423440E-3,3.462106455E-3,-2.396842930E-3
1.977384642E0,1.997369109E-3,1.331579406E-3,-3.462106455E-3
1.979897611E0,-1.331579406E-4,-7.989476435E-4,-6.657897029E-3
1.982410632E0,-7.590002380E-3,-7.190528791E-3,-1.198421419E-2
1.984923601E0,-7.590002380E-3,-9.321056306E-3,-1.198421419E-2
1.987436622E0,-7.590002380E-3,-1.038631983E-2,-1.304947771E-2
1.989949590E0,-1.185105648E-2,-9.321056306E-3,-1.731053181E-2
1.992462611E0,-1.291632000E-2,-9.321056306E-3,-1.624526829E-2
1.994975580E0,-1.717737503E-2,-8.255792782E-3,-1.624526829E-2
1.997488601E0,-1.824263856E-2,-1.145158336E-2,-1.837579533E-2
2.000001569E0,-1.611211151E-2,-1.145158336E-2,-2.263684943E-2
2.002514590E0,-1.398158353E-2,-9.321056306E-3,-2.050632238E-2
2.005027559E0,-1.504684705E-2,-8.255792782E-3,-2.157158591E-2
2.007540580E0,-1.078579295E-2,-1.038631983E-2,-2.370211296E-2
2.010053549E0,-9.720529430E-3,-8.255792782E-3,-2.370211296E-2
2.012566569E0,-6.524738856E-3,-1.145158336E-2,-2.370211296E-2
2.015079538E0,-5.459475331E-3,-1.145158336E-2,-2.263684943E-2
2.017592559E0,-1.331579406E-4,-7.190528791E-3,-2.050632238E-2
2.020105528E0,9.321055841E-4,-6.125265267E-3,-2.157158591E-2
2.022618549E0,4.127896391E-3,-8.255792782E-3,-1.731053181E-2
2.025131517E0,7.323686965E-3,-6.125265267E-3,-1.411474124E-2
2.027644538E0,9.454214014E-3,-2.929474693E-3,-1.837579533E-2
2.030157507E0,1.265000459E-2,-1.864211168E-3,-1.198421419E-2
2.032670528E0,1.584579423E-2,-7.989476435E-4,-9.853687137E-3
2.035183497E0,1.797632128E-2,2.396842930E-3,-9.853687137E-3
2.037696517E0,1.904158480E-2,2.396842930E-3,-7.723160554E-3
2.040209486E0,2.117211185E-2,3.462106455E-3,-5.592633504E-3
2.042722507E0,2.117211185E-2,7.723160554E-3,-5.592633504E-3
2.045235476E0,2.543316595E-2,1.304947771E-2,-5.592633504E-3
2.047748497E0,2.649842948E-2,1.091895066E-2,-2.663158812E-4
2.050261465E0,2.649842948E-2,1.091895066E-2,-2.663158812E-4
2.052774486E0,3.075948358E-2,1.091895066E-2,1.864211168E-3
2.055287455E0,3.075948358E-2,7.723160554E-3,1.864211168E-3
2.057800476E0,2.756369300E-2,8.788423613E-3,3.994738217E-3
2.060313444E0,2.649842948E-2,6.657897029E-3,2.929474693E-3
2.062826465E0,2.436790243E-2,5.592633504E-3,5.060001742E-3
2.065339434E0,2.223737538E-2,2.396842930E-3,3.994738217E-3
2.067852455E0,2.223737538E-2,-3.994738217E-3,5.060001742E-3
2.070365424E0,2.117211185E-2,-3.994738217E-3,7.190528791E-3
2.072878444E0,1.797632128E-2,-7.190528791E-3,9.321056306E-3
2.075391413E0,2.010684833E-2,-8.255792782E-3,8.255792782E-3
2.077904434E0,1.371526811E-2,-8.255792782E-3,1.145158336E-2
2.080417403E0,1.478053164E-2,-9.321056306E-3,1.358211040E-2
2.082930424E0,1.478053164E-2,-1.251684688E-2,1.677790098E-2
2.085443392E0,1.051947754E-2,-1.464737393E-2,1.677790098E-2
2.087956413E0,1.051947754E-2,-1.571263745E-2,1.571263745E-2
2.090469382E0,9.454214014E-3,-1.890842803E-2,1.571263745E-2
2.092982403E0,7.323686965E-3,-2.103895508E-2,1.677790098E-2
2.095495372E0,7.323686965E-3,-2.423474565E-2,1.677790098E-2
2.098008392E0,8.388950489E-3,-2.636527270E-2,1.571263745E-2
2.100521361E0,9.454214014E-3,-2.530000918E-2,1.571263745E-2
2.103034382E0,8.388950489E-3,-2.530000918E-2,1.890842803E-2
2.105547351E0,8.388950489E-3,-2.316948213E-2,1.571263745E-2
2.108060372E0,1.371526811E-2,-1.890842803E-2,1.571263745E-2
2.110573340E0,1.051947754E-2,-1.464737393E-2,1.677790098E-2
2.113086361E0,1.371526811E-2,-1.464737393E-2,1.677790098E-2
2.115599330E0,1.478053164E-2,-1.571263745E-2,1.677790098E-2
2.118112351E0,1.584579423E-2,-1.251684688E-2,1.677790098E-2
2.120625319E0,1.691105776E-2,-9.321056306E-3,1.784316450E-2
2.123138340E0,2.010684833E-2,-1.251684688E-2,1.784316450E-2
2.125651309E0,2.117211185E-2,-1.571263745E-2,1.784316450E-2
2.128164330E0,1.904158480E-2,-1.571263745E-2,1.358211040E-2
2.130677299E0,2.010684833E-2,-1.677790098E-2,1.251684688E-2
2.133190319E0,2.117211185E-2,-1.784316450E-2,1.145158336E-2
2.135703288E0,2.117211185E-2,-1.784316450E-2,8.255792782E-3
2.138216309E0,2.436790243E-2,-1.890842803E-2,8.255792782E-3
2.140729278E0,2.330263890E-2,-2.103895508E-2,9.321056306E-3
2.143242299E0,2.330263890E-2,-2.210421860E-2,9.321056306E-3
2.145755267E0,2.117211185E-2,-2.210421860E-2,8.255792782E-3
2.148268288E0,1.904158480E-2,-1.784316450E-2,2.929474693E-3
2.150781257E0,2.117211185E-2,-1.464737393E-2,1.864211168E-3
2.153294278E0,1.797632128E-2,-1.251684688E-2,1.864211168E-3
2.155807247E0,2.010684833E-2,-8.255792782E-3,-2.663158812E-4
2.158320267E0,1.797632128E-2,-7.190528791E-3,-1.331579406E-3
2.160833236E0,1.691105776E-2,-6.125265267E-3,-1.331579406E-3
2.163346257E0,1.584579423E-2,-6.125265267E-3,-5.592633504E-3
2.165859226E0,1.584579423E-2,-6.125265267E-3,-7.723160554E-3
2.168372247E0,2.223737538E-2,-2.929474693E-3,-5.592633504E-3
2.170885215E0,1.904158480E-2,-3.994738217E-3,-7.723160554E-3
2.173398184E0,1.904158480E-2,-7.989476435E-4,-1.198421419E-2
2.175911205E0,2.330263890E-2,-1.864211168E-3,-1.411474124E-2
2.178424174E0,2.436790243E-2,-7.989476435E-4,-1.624526829E-2
2.180937194E0,2.436790243E-2,1.331579406E-3,-1.518000476E-2
2.183450163E0,2.543316595E-2,-2.929474693E-3,-1.624526829E-2
2.185963184E0,2.969422005E-2,-6.125265267E-3,-1.518000476E-2
2.188476153E0,2.969422005E-2,-6.125265267E-3,-1.411474124E-2
2.190989174E0,2.969422005E-2,-3.994738217E-3,-1.411474124E-2
2.193502142E0,2.862895653E-2,-6.125265267E-3,-1.518000476E-2
2.196015163E0,2.543316595E-2,-7.190528791E-3,-1.624526829E-2
2.198528132E0,2.862895653E-2,-6.125265267E-3,-1.624526829E-2
2.201041153E0,2.862895653E-2,-7.190528791E-3,-1.304947771E-2
2.203554122E0,2.969422005E-2,-6.125265267E-3,-1.518000476E-2
2.206067142E0,3.075948358E-2,-6.125265267E-3,-1.411474124E-2
2.208580111E0,2.969422005E-2,-7.190528791E-3,-9.853687137E-3
2.211093132E0,2.969422005E-2,-5.060001742E-3,-9.853687137E-3
2.213606101E0,2.969422005E-2,-7.190528791E-3,-8.788423613E-3
2.216119122E0,3.289001063E-2,-7.190528791E-3,-7.723160554E-3
2.218632090E0,3.075948358E-2,-8.255792782E-3,-6.657897029E-3
2.221145111E0,2.969422005E-2,-1.145158336E-2,-6.657897029E-3
2.223658080E0,3.289001063E-2,-8.255792782E-3,-3.462106455E-3
2.226171101E0,3.289001063E-2,-9.321056306E-3,-5.592633504E-3
2.228684069E0,3.395527601E-2,-1.038631983E-2,-4.527369980E-3
2.231197090E0,3.289001063E-2,-1.145158336E-2,-2.396842930E-3
2.233710059E0,3.182474896E-2,-1.145158336E-2,-1.331579406E-3
2.236223080E0,3.182474896E-2,-1.571263745E-2,-2.663158812E-4
2.238736049E0,3.289001063E-2,-1.358211040E-2,7.989476435E-4
2.241249069E0,3.075948358E-2,-1.038631983E-2,3.994738217E-3
2.243762038E0,2.969422005E-2,-8.255792782E-3,6.125265267E-3
2.246275059E0,3.075948358E-2,-9.321056306E-3,6.125265267E-3
2.248788028E0,3.182474896E-2,-1.038631983E-2,8.255792782E-3
2.251301049E0,3.182474896E-2,-1.358211040E-2,9.321056306E-3
2.253814017E0,2.862895653E-2,-1.358211040E-2,1.145158336E-2
2.256327038E0,2.543316595E-2,-1.464737393E-2,1.571263745E-2
2.258840007E0,2.649842948E-2,-1.784316450E-2,1.464737393E-2
2.261353028E0,2.649842948E-2,-1.464737393E-2,1.358211040E-2
2.263865997E0,2.436790243E-2,-1.997369155E-2,1.251684688E-2
2.266379017E0,2.330263890E-2,-1.784316450E-2,1.464737393E-2
2.268891986E0,2.223737538E-2,-2.103895508E-2,1.571263745E-2
2.271405007E0,2.330263890E-2,-1.784316450E-2,1.784316450E-2
2.273917976E0,2.223737538E-2,-2.423474565E-2,1.677790098E-2
2.276430997E0,2.330263890E-2,-2.103895508E-2,1.677790098E-2
2.278943965E0,2.117211185E-2,-1.890842803E-2,1.997369155E-2
2.281456986E0,2.010684833E-2,-1.997369155E-2,1.571263745E-2
2.283969955E0,1.904158480E-2,-2.103895508E-2,1.890842803E-2
2.286482976E0,1.904158480E-2,-1.997369155E-2,2.210421860E-2
2.288995944E0,1.691105776E-2,-1.571263745E-2,1.997369155E-2
2.291508965E0,2.117211185E-2,-1.571263745E-2,1.997369155E-2
2.294021934E0,1.904158480E-2,-1.890842803E-2,1.890842803E-2
2.296534955E0,2.117211185E-2,-1.464737393E-2,1.997369155E-2
2.299047924E0,2.117211185E-2,-1.571263745E-2,1.997369155E-2
2.301560944E0,2.010684833E-2,-1.464737393E-2,1.571263745E-2
2.304073913E0,2.010684833E-2,-1.571263745E-2,1.571263745E-2
2.306586934E0,2.010684833E-2,-1.571263745E-2,1.677790098E-2
2.309099903E0,2.330263890E-2,-1.784316450E-2,1.784316450E-2
2.311612924E0,2.330263890E-2,-1.890842803E-2,1.677790098E-2
2.314125892E0,2.330263890E-2,-1.997369155E-2,1.571263745E-2
2.316638913E0,2.330263890E-2,-2.316948213E-2,1.464737393E-2
2.319151882E0,2.117211185E-2,-2.530000918E-2,1.358211040E-2
2.321664903E0,2.117211185E-2,-2.316948213E-2,1.464737393E-2
2.324177872E0,2.223737538E-2,-2.316948213E-2,1.358211040E-2
2.326690892E0,2.436790243E-2,-2.956106327E-2,1.038631983E-2
2.329203861E0,2.436790243E-2,-2.636527270E-2,1.251684688E-2
2.331716882E0,2.649842948E-2,-2.316948213E-2,1.145158336E-2
2.334229851E0,2.756369300E-2,-2.316948213E-2,1.145158336E-2
2.336742872E0,2.862895653E-2,-2.423474565E-2,1.038631983E-2
2.339255840E0,2.756369300E-2,-2.316948213E-2,1.358211040E-2
2.341768861E0,2.756369300E-2,-1.890842803E-2,1.145158336E-2
2.344281830E0,2.969422005E-2,-1.571263745E-2,8.255792782E-3
2.346794851E0,2.862895653E-2,-1.571263745E-2,1.145158336E-2
2.349307819E0,2.862895653E-2,-1.464737393E-2,9.321056306E-3
2.351820840E0,2.862895653E-2,-1.571263745E-2,9.321056306E-3
2.354333809E0,3.182474896E-2,-1.677790098E-2,1.145158336E-2
2.356846830E0,3.182474896E-2,-1.145158336E-2,1.038631983E-2
2.359359799E0,3.395527601E-2,-1.038631983E-2,1.145158336E-2
2.361872819E0,3.502053767E-2,-8.255792782E-3,1.464737393E-2
2.364385788E0,3.821633011E-2,-5.060001742E-3,1.571263745E-2
2.366898809E0,4.034685716E-2,-5.060001742E-3,1.145158336E-2
2.369411778E0,3.608580306E-2,-2.929474693E-3,1.145158336E-2
2.371924799E0,3.928159177E-2,2.663158812E-4,1.464737393E-2
2.374437767E0,4.247738421E-2,-3.994738217E-3,1.358211040E-2
2.376950788E0,4.354264587E-2,-3.994738217E-3,1.358211040E-2
2.379463757E0,4.567317292E-2,-2.929474693E-3,1.464737393E-2
2.381976726E0,4.673843831E-2,-2.929474693E-3,1.358211040E-2
2.384489747E0,4.247738421E-2,-5.060001742E-3,1.358211040E-2
2.387002715E0,4.460791126E-2,-3.994738217E-3,1.571263745E-2
2.389515736E0,4.354264587E-2,-5.060001742E-3,1.571263745E-2
2.392028705E0,4.673843831E-2,-8.255792782E-3,1.784316450E-2
2.394541726E0,4.567317292E-2,-1.145158336E-2,1.890842803E-2
2.397054694E0,4.460791126E-2,-1.038631983E-2,2.103895508E-2
2.399567715E0,4.673843831E-2,-1.038631983E-2,2.210421860E-2
2.402080684E0,4.886896536E-2,-1.358211040E-2,2.103895508E-2
2.404593705E0,4.780369997E-2,-1.571263745E-2,2.103895508E-2
2.407106674E0,4.780369997E-2,-1.251684688E-2,2.103895508E-2
2.409619694E0,4.567317292E-2,-8.255792782E-3,2.849579975E-2
2.412132663E0,4.567317292E-2,-8.255792782E-3,2.743053623E-2
2.414645684E0,4.567317292E-2,-7.190528791E-3,3.169158846E-2
2.417158653E0,4.460791126E-2,-6.125265267E-3,3.595264256E-2
2.419671674E0,4.567317292E-2,-3.994738217E-3,3.914843500E-2
2.422184642E0,4.673843831E-2,-1.864211168E-3,4.021369666E-2
2.424697663E0,3.928159177E-2,-2.929474693E-3,3.914843500E-2
2.427210632E0,3.928159177E-2,-5.060001742E-3,4.127896205E-2
2.429723653E0,4.354264587E-2,-3.994738217E-3,4.554001614E-2
2.432236622E0,3.608580306E-2,-8.255792782E-3,4.660527781E-2
2.434749642E0,3.502053767E-2,-1.145158336E-2,4.554001614E-2
2.437262611E0,3.715106472E-2,-1.251684688E-2,4.340948910E-2
2.439775632E0,3.395527601E-2,-1.571263745E-2,4.554001614E-2
2.442288601E0,2.969422005E-2,-1.677790098E-2,4.980107024E-2
2.444801622E0,3.075948358E-2,-1.784316450E-2,4.340948910E-2
2.447314590E0,2.862895653E-2,-2.210421860E-2,4.127896205E-2
2.449827611E0,2.756369300E-2,-1.997369155E-2,4.127896205E-2
2.452340632E0,2.756369300E-2,-1.890842803E-2,4.554001614E-2
2.454853653E0,2.756369300E-2,-1.890842803E-2,4.554001614E-2
2.457366674E0,2.862895653E-2,-1.997369155E-2,4.340948910E-2
2.459879694E0,2.862895653E-2,-2.103895508E-2,4.127896205E-2
2.462392715E0,2.756369300E-2,-2.316948213E-2,4.127896205E-2
2.464905736E0,2.756369300E-2,-2.103895508E-2,3.914843500E-2
2.467418757E0,2.649842948E-2,-2.103895508E-2,3.701790795E-2
2.469931778E0,2.969422005E-2,-1.677790098E-2,3.808316961E-2
2.472444799E0,2.649842948E-2,-1.571263745E-2,3.808316961E-2
2.474957819E0,2.756369300E-2,-1.358211040E-2,3.808316961E-2
2.477470840E0,2.862895653E-2,-1.038631983E-2,4.127896205E-2
2.479983861E0,2.543316595E-2,-1.038631983E-2,3.595264256E-2
2.482496882E0,2.543316595E-2,-8.255792782E-3,3.382211551E-2
2.485009903E0,2.543316595E-2,-6.125265267E-3,3.382211551E-2
2.487522924E0,2.862895653E-2,-6.125265267E-3,3.169158846E-2
2.490035944E0,3.182474896E-2,-2.929474693E-3,3.382211551E-2
2.492548965E0,2.649842948E-2,-7.190528791E-3,3.169158846E-2
2.495061986E0,2.543316595E-2,-6.125265267E-3,3.062632680E-2
2.497575007E0,2.543316595E-2,-8.255792782E-3,2.849579975E-2
2.500088028E0,2.330263890E-2,-8.255792782E-3,2.636527270E-2
2.502601049E0,2.223737538E-2,-7.190528791E-3,2.743053623E-2
2.505114069E0,2.436790243E-2,-7.190528791E-3,2.636527270E-2
2.507627090E0,2.330263890E-2,-9.321056306E-3,2.210421860E-2
2.510140111E0,2.223737538E-2,-8.255792782E-3,1.997369155E-2
2.512653132E0,2.330263890E-2,-8.255792782E-3,1.890842803E-2
2.515166153E0,2.436790243E-2,-8.255792782E-3,1.890842803E-2
2.517679174E0,2.649842948E-2,-8.255792782E-3,1.571263745E-2
2.520192194E0,2.649842948E-2,-1.038631983E-2,1.358211040E-2
2.522705215E0,2.862895653E-2,-9.321056306E-3,1.358211040E-2
2.525218236E0,2.543316595E-2,-9.321056306E-3,8.255792782E-3
2.527731257E0,2.649842948E-2,-9.321056306E-3,7.190528791E-3
2.530244278E0,2.436790243E-2,-7.190528791E-3,7.190528791E-3
2.532757299E0,2.436790243E-2,-7.190528791E-3,5.060001742E-3
2.535270319E0,2.330263890E-2,-9.321056306E-3,2.929474693E-3
2.537783340E0,2.649842948E-2,-8.255792782E-3,3.994738217E-3
2.540296361E0,2.436790243E-2,-9.321056306E-3,1.864211168E-3
2.542809382E0,2.223737538E-2,-8.255792782E-3,-2.663158812E-4
2.545322403E0,2.223737538E-2,-3.994738217E-3,-2.663158812E-4
2.547835424E0,1.797632128E-2,-5.060001742E-3,-2.396842930E-3
2.550348444E0,1.797632128E-2,-3.994738217E-3,-2.396842930E-3
2.552861465E0,1.584579423E-2,-3.994738217E-3,-2.396842930E-3
2.555374486E0,1.478053164E-2,-7.190528791E-3,-2.663158812E-4
2.557887507E0,1.478053164E-2,-5.060001742E-3,-2.663158812E-4
2.560400528E0,1.158474106E-2,-1.864211168E-3,-2.663158812E-4
2.562913497E0,1.051947754E-2,-2.929474693E-3,7.989476435E-4
2.565426517E0,6.258423440E-3,-1.864211168E-3,-2.663158812E-4
2.567939538E0,6.258423440E-3,-7.190528791E-3,-3.462106455E-3
2.570452559E0,1.051947754E-2,-8.255792782E-3,-3.462106455E-3
2.572965580E0,8.388950489E-3,-8.255792782E-3,-1.331579406E-3
2.575478601E0,7.323686965E-3,-1.038631983E-2,-3.462106455E-3
2.577991622E0,5.193159916E-3,-1.464737393E-2,-2.396842930E-3
2.580504642E0,7.323686965E-3,-1.677790098E-2,-5.592633504E-3
2.583017663E0,5.193159916E-3,-1.571263745E-2,-4.527369980E-3
2.585530684E0,8.388950489E-3,-1.571263745E-2,-4.527369980E-3
2.588043705E0,6.258423440E-3,-1.571263745E-2,-4.527369980E-3
2.590556726E0,3.062632633E-3,-1.784316450E-2,-5.592633504E-3
2.593069747E0,8.388950489E-3,-1.997369155E-2,-5.592633504E-3
2.595582767E0,1.265000459E-2,-1.571263745E-2,7.989476435E-4
2.598095788E0,1.051947754E-2,-1.784316450E-2,-3.462106455E-3
2.600608809E0,1.158474106E-2,-1.997369155E-2,-3.462106455E-3
2.603121830E0,9.454214014E-3,-1.677790098E-2,-3.462106455E-3
2.605634851E0,1.691105776E-2,-1.784316450E-2,-3.462106455E-3
2.608147872E0,2.117211185E-2,-1.677790098E-2,-1.331579406E-3
2.610660892E0,2.117211185E-2,-1.358211040E-2,-1.331579406E-3
2.613173913E0,2.543316595E-2,-1.571263745E-2,-3.462106455E-3
2.615686934E0,3.182474896E-2,-1.358211040E-2,-2.663158812E-4
2.618199955E0,3.608580306E-2,-1.358211040E-2,1.864211168E-3
2.620712976E0,4.354264587E-2,-1.464737393E-2,7.989476435E-4
2.623225997E0,4.780369997E-2,-1.038631983E-2,7.989476435E-4
2.625739017E0,5.739107355E-2,-9.321056306E-3,7.989476435E-4
2.628252038E0,6.484791636E-2,-7.190528791E-3,7.989476435E-4
2.630765059E0,7.123950124E-2,-7.190528791E-3,2.929474693E-3
2.633278080E0,8.082687110E-2,-9.321056306E-3,5.060001742E-3
2.635791101E0,9.254477173E-2,-1.358211040E-2,5.060001742E-3
2.638304122E0,1.010668799E-1,-1.571263745E-2,5.060001742E-3
2.640817142E0,1.106542498E-1,-1.890842803E-2,7.190528791E-3
2.643330163E0,1.255679429E-1,-1.997369155E-2,8.255792782E-3
2.645843184E0,1.404816210E-1,-1.571263745E-2,6.125265267E-3
2.648356205E0,1.532647908E-1,-1.038631983E-2,2.929474693E-3
2.650869226E0,1.671132147E-1,-7.190528791E-3,3.994738217E-3
2.653382247E0,1.767005920E-1,-2.929474693E-3,1.864211168E-3
2.655895267E0,1.862879544E-1,-7.989476435E-4,-1.331579406E-3
2.658408288E0,1.958753318E-1,-1.864211168E-3,-2.396842930E-3
2.660921309E0,2.001363784E-1,1.331579406E-3,-2.396842930E-3
2.663434330E0,2.001363784E-1,-7.989476435E-4,-3.462106455E-3
2.665947351E0,2.054627091E-1,-5.060001742E-3,-1.331579406E-3
2.668460372E0,2.043974400E-1,-7.190528791E-3,7.989476435E-4
2.670973392E0,2.022669166E-1,-8.255792782E-3,-2.663158812E-4
2.673486413E0,2.001363784E-1,-9.321056306E-3,-2.663158812E-4
2.675999434E0,1.969406009E-1,-1.358211040E-2,6.125265267E-3
2.678512455E0,1.926795393E-1,-1.251684688E-2,1.145158336E-2
2.681025476E0,1.873532236E-1,-1.145158336E-2,1.038631983E-2
2.683538497E0,1.841574311E-1,-1.251684688E-2,1.145158336E-2
2.686051517E0,1.777658463E-1,-1.464737393E-2,1.464737393E-2
2.688564538E0,1.703090072E-1,-1.251684688E-2,1.677790098E-2
2.691077559E0,1.660479456E-1,-1.038631983E-2,1.890842803E-2
2.693590580E0,1.617868990E-1,-1.251684688E-2,2.316948213E-2
2.696103601E0,1.532647908E-1,-9.321056306E-3,2.636527270E-2
2.698616622E0,1.458079517E-1,-6.125265267E-3,2.743053623E-2
2.701129642E0,1.415468901E-1,-9.321056306E-3,2.956106327E-2
2.703642663E0,1.372858435E-1,-7.190528791E-3,3.275685385E-2
2.706155684E0,1.287637353E-1,-2.929474693E-3,3.275685385E-2
2.708668705E0,1.234374121E-1,2.663158812E-4,3.595264256E-2
2.711181726E0,1.181110963E-1,1.331579406E-3,3.488738090E-2
2.713694747E0,1.159805655E-1,3.462106455E-3,3.169158846E-2
2.716207767E0,1.095889881E-1,5.592633504E-3,3.488738090E-2
2.718720788E0,1.074584574E-1,6.657897029E-3,3.488738090E-2
2.721233809E0,1.042626649E-1,6.657897029E-3,3.914843500E-2
2.723746830E0,1.021321416E-1,4.527369980E-3,3.914843500E-2
2.726259799E0,9.574055672E-2,2.396842930E-3,3.595264256E-2
2.728772819E0,9.467529505E-2,2.663158812E-4,3.701790795E-2
2.731285840E0,9.254477173E-2,-1.864211168E-3,4.021369666E-2
2.733798861E0,8.828371763E-2,-2.929474693E-3,3.595264256E-2
2.736311882E0,8.508792520E-2,-5.060001742E-3,3.382211551E-2
2.738824903E0,7.763107866E-2,-8.255792782E-3,3.382211551E-2
2.741337924E0,7.443528622E-2,-8.255792782E-3,3.275685385E-2
2.743850944E0,7.337002456E-2,-8.255792782E-3,3.275685385E-2
2.746363965E0,6.697844714E-2,-6.125265267E-3,3.062632680E-2
2.748876986E0,6.378265470E-2,-7.190528791E-3,3.062632680E-2
2.751390007E0,5.739107355E-2,-8.255792782E-3,3.062632680E-2
2.753903028E0,5.632580817E-2,-7.190528791E-3,3.062632680E-2
2.756416049E0,5.419528112E-2,-5.060001742E-3,2.849579975E-2
2.758929069E0,4.247738421E-2,2.663158812E-4,2.636527270E-2
2.761442090E0,3.715106472E-2,-7.989476435E-4,2.849579975E-2
2.763955111E0,3.075948358E-2,2.396842930E-3,2.743053623E-2
2.766468132E0,2.649842948E-2,6.657897029E-3,2.423474565E-2
2.768981153E0,2.117211185E-2,7.723160554E-3,2.316948213E-2
2.771494174E0,1.904158480E-2,7.723160554E-3,2.423474565E-2
2.774007194E0,1.584579423E-2,9.853687137E-3,2.530000918E-2
2.776520215E0,1.051947754E-2,1.198421419E-2,2.423474565E-2
2.779033236E0,5.193159916E-3,1.518000476E-2,2.316948213E-2
2.781546257E0,1.997369109E-3,1.624526829E-2,2.316948213E-2
2.784059278E0,-3.328948515E-3,1.731053181E-2,1.890842803E-2
2.786572299E0,-7.590002380E-3,1.837579533E-2,2.103895508E-2
2.789085319E0,-1.291632000E-2,1.624526829E-2,1.890842803E-2
2.791598340E0,-1.504684705E-2,1.304947771E-2,1.784316450E-2
2.794111361E0,-2.250369266E-2,7.723160554E-3,1.571263745E-2
2.796624382E0,-2.783001028E-2,5.592633504E-3,1.358211040E-2
2.799137403E0,-3.209106252E-2,2.396842930E-3,1.145158336E-2
2.801650424E0,-3.848264366E-2,-7.989476435E-4,6.125265267E-3
2.804163444E0,-4.274369776E-2,-1.864211168E-3,5.060001742E-3
2.806676465E0,-4.913527891E-2,-5.060001742E-3,3.994738217E-3
2.809189486E0,-5.552686006E-2,-5.060001742E-3,7.989476435E-4
2.811702507E0,-6.085317954E-2,-2.929474693E-3,-2.396842930E-3
2.814215528E0,-6.191844121E-2,-2.929474693E-3,-1.091895066E-2
2.816728549E0,-6.724476069E-2,-3.994738217E-3,-1.091895066E-2
2.819241569E0,-7.257107645E-2,2.663158812E-4,-1.304947771E-2
2.821754590E0,-7.683213055E-2,-7.989476435E-4,-1.731053181E-2
2.824267611E0,-7.576686889E-2,2.663158812E-4,-1.837579533E-2
2.826780632E0,-7.789739221E-2,2.396842930E-3,-1.944105886E-2
2.829293653E0,-8.002792299E-2,3.462106455E-3,-2.476737648E-2
2.831806674E0,-8.215844631E-2,4.527369980E-3,-2.583264001E-2
2.834319694E0,-8.215844631E-2,5.592633504E-3,-2.370211296E-2
2.836832715E0,-8.002792299E-2,8.788423613E-3,-2.689790353E-2
2.839345736E0,-7.789739221E-2,5.592633504E-3,-2.902843058E-2
2.841858757E0,-7.363633811E-2,5.592633504E-3,-2.902843058E-2
2.844371778E0,-7.150581479E-2,1.091895066E-2,-2.583264001E-2
2.846884799E0,-6.617949903E-2,1.304947771E-2,-2.689790353E-2
2.849397819E0,-6.404896826E-2,1.624526829E-2,-2.583264001E-2
2.851910840E0,-5.978791416E-2,1.944105886E-2,-2.583264001E-2
2.854423861E0,-5.339633301E-2,1.518000476E-2,-2.157158591E-2
2.856936882E0,-5.020054430E-2,1.944105886E-2,-2.263684943E-2
2.859449903E0,-4.807001725E-2,1.944105886E-2,-1.944105886E-2
2.861962924E0,-4.167843610E-2,2.157158591E-2,-1.731053181E-2
2.864475944E0,-4.167843610E-2,2.583264001E-2,-1.837579533E-2
2.866988965E0,-3.741738200E-2,2.370211296E-2,-1.731053181E-2
2.869501986E0,-3.315632790E-2,2.583264001E-2,-1.837579533E-2
2.872015007E0,-3.102580085E-2,2.689790353E-2,-1.411474124E-2
2.874528028E0,-2.783001028E-2,2.263684943E-2,-1.304947771E-2
2.877041049E0,-2.356895618E-2,2.370211296E-2,-1.091895066E-2
2.879554069E0,-2.569948323E-2,2.689790353E-2,-1.304947771E-2
2.882067090E0,-2.463421971E-2,2.050632238E-2,-1.411474124E-2
2.884580111E0,-2.250369266E-2,1.624526829E-2,-1.091895066E-2
2.887093080E0,-2.143842913E-2,1.731053181E-2,-9.853687137E-3
2.889606101E0,-2.356895618E-2,1.304947771E-2,-6.657897029E-3
2.892119122E0,-2.143842913E-2,1.091895066E-2,-7.723160554E-3
2.894632142E0,-2.037316561E-2,8.788423613E-3,-3.462106455E-3
2.897145163E0,-2.037316561E-2,5.592633504E-3,-3.462106455E-3
2.899658184E0,-1.930790208E-2,3.462106455E-3,-6.657897029E-3
2.902171205E0,-1.824263856E-2,3.462106455E-3,-2.396842930E-3
2.904684226E0,-1.504684705E-2,1.331579406E-3,3.994738217E-3
2.907197247E0,-1.291632000E-2,2.663158812E-4,5.060001742E-3
2.909710267E0,-9.720529430E-3,2.663158812E-4,5.060001742E-3
2.912223288E0,-1.078579295E-2,-2.929474693E-3,9.321056306E-3
2.914736309E0,-6.524738856E-3,-5.060001742E-3,7.190528791E-3
2.917249330E0,-1.331579406E-4,-6.125265267E-3,9.321056306E-3
2.919762351E0,3.062632633E-3,-7.190528791E-3,1.145158336E-2
2.922275372E0,6.258423440E-3,-9.321056306E-3,1.145158336E-2
2.924788392E0,1.158474106E-2,-1.358211040E-2,1.251684688E-2
2.927301413E0,1.371526811E-2,-1.251684688E-2,1.464737393E-2
2.929814434E0,1.691105776E-2,-1.251684688E-2,1.464737393E-2
2.932327455E0,2.330263890E-2,-1.251684688E-2,1.464737393E-2
2.934840476E0,2.756369300E-2,-1.571263745E-2,1.571263745E-2
2.937353497E0,3.289001063E-2,-1.677790098E-2,1.464737393E-2
2.939866517E0,3.715106472E-2,-1.890842803E-2,1.784316450E-2
2.942379538E0,4.460791126E-2,-1.997369155E-2,1.890842803E-2
2.944892559E0,5.526054651E-2,-2.316948213E-2,1.890842803E-2
2.947405632E0,6.165212765E-2,-2.743053623E-2,1.677790098E-2
2.949918705E0,7.017423213E-2,-2.956106327E-2,1.464737393E-2
2.952431778E0,8.295739442E-2,-2.423474565E-2,1.571263745E-2
2.954944903E0,9.467529505E-2,-1.997369155E-2,1.890842803E-2
2.957457976E0,9.893634915E-2,-1.784316450E-2,1.784316450E-2
2.959971101E0,1.085237190E-1,-1.677790098E-2,1.038631983E-2
2.962484174E0,1.170458272E-1,-1.251684688E-2,1.038631983E-2
2.964997247E0,1.298289895E-1,-1.358211040E-2,1.038631983E-2
2.967510372E0,1.330247819E-1,-1.784316450E-2,9.321056306E-3
2.970023444E0,1.404816210E-1,-2.103895508E-2,5.060001742E-3
2.972536569E0,1.490037292E-1,-2.316948213E-2,6.125265267E-3
2.975049642E0,1.543300599E-1,-3.062632680E-2,7.190528791E-3
2.977562715E0,1.596563756E-1,-3.382211551E-2,9.321056306E-3
2.980075840E0,1.660479456E-1,-3.382211551E-2,1.145158336E-2
2.982588913E0,1.756353229E-1,-3.488738090E-2,1.038631983E-2
2.985101986E0,1.841574311E-1,-3.275685385E-2,1.038631983E-2
2.987615111E0,1.937448084E-1,-2.743053623E-2,1.145158336E-2
2.990128184E0,2.097237557E-1,-1.997369155E-2,1.038631983E-2
2.992641309E0,2.193111330E-1,-1.251684688E-2,8.255792782E-3
2.995154382E0,2.257027030E-1,-7.190528791E-3,8.255792782E-3
2.997667455E0,2.310290337E-1,-3.994738217E-3,1.864211168E-3
3.000180580E0,2.374206036E-1,-3.994738217E-3,-1.331579406E-3
3.002693653E0,2.395511419E-1,-7.989476435E-4,-1.331579406E-3
3.005206778E0,2.395511419E-1,-1.864211168E-3,1.864211168E-3
3.007719851E0,2.406163961E-1,-6.125265267E-3,1.864211168E-3
3.010232924E0,2.406163961E-1,-5.060001742E-3,7.190528791E-3
3.012746049E0,2.374206036E-1,-1.864211168E-3,9.321056306E-3
3.015259122E0,2.310290337E-1,-2.929474693E-3,7.190528791E-3
3.017772194E0,2.299637645E-1,-3.994738217E-3,1.145158336E-2
3.020285319E0,2.246374488E-1,2.663158812E-4,1.145158336E-2
3.022798392E0,2.203763872E-1,1.331579406E-3,1.145158336E-2
3.025311517E0,2.118542790E-1,-2.929474693E-3,1.358211040E-2
3.027824590E0,2.022669166E-1,-3.994738217E-3,1.464737393E-2
3.030337663E0,1.937448084E-1,-3.994738217E-3,1.571263745E-2
3.032850788E0,1.852227002E-1,-6.125265267E-3,1.464737393E-2
3.035363861E0,1.756353229E-1,-7.190528791E-3,1.464737393E-2
3.037876986E0,1.681784838E-1,-7.190528791E-3,1.358211040E-2
3.040390059E0,1.596563756E-1,-9.321056306E-3,1.251684688E-2
3.042903132E0,1.500689983E-1,-9.321056306E-3,1.251684688E-2
3.045416257E0,1.426121593E-1,-1.038631983E-2,1.251684688E-2
3.047929330E0,1.330247819E-1,-1.251684688E-2,1.038631983E-2
3.050442403E0,1.213068813E-1,-1.251684688E-2,1.038631983E-2
3.052955528E0,1.149153039E-1,-1.251684688E-2,1.145158336E-2
3.055468601E0,1.053279340E-1,-1.358211040E-2,1.251684688E-2
3.057981726E0,9.680582583E-2,-1.358211040E-2,8.255792782E-3
3.060494799E0,9.041424096E-2,-1.358211040E-2,5.060001742E-3
3.063007872E0,8.189213276E-2,-1.677790098E-2,5.060001742E-3
3.065520997E0,7.230476290E-2,-1.145158336E-2,3.994738217E-3
3.068034069E0,6.484791636E-2,-3.994738217E-3,1.864211168E-3
3.070547194E0,5.419528112E-2,-6.125265267E-3,1.864211168E-3
3.073060267E0,4.673843831E-2,-9.321056306E-3,1.864211168E-3
3.075573340E0,3.928159177E-2,-1.677790098E-2,2.929474693E-3
3.078086465E0,3.395527601E-2,-2.316948213E-2,-1.331579406E-3
3.080599538E0,2.969422005E-2,-2.423474565E-2,-1.331579406E-3
3.083112663E0,2.436790243E-2,-1.784316450E-2,-2.663158812E-4
3.085625736E0,2.117211185E-2,-1.464737393E-2,1.864211168E-3
3.088138809E0,2.117211185E-2,-1.145158336E-2,-2.663158812E-4
3.090651934E0,2.117211185E-2,-1.251684688E-2,1.864211168E-3
3.093165007E0,1.691105776E-2,-1.464737393E-2,2.929474693E-3
3.095678080E0,1.478053164E-2,-1.997369155E-2,-1.331579406E-3
3.098191205E0,1.584579423E-2,-1.784316450E-2,-2.396842930E-3
3.100704278E0,1.371526811E-2,-1.784316450E-2,-6.657897029E-3
3.103217403E0,1.051947754E-2,-1.997369155E-2,-6.657897029E-3
3.105730476E0,6.258423440E-3,-1.890842803E-2,-4.527369980E-3
3.108243549E0,3.062632633E-3,-1.571263745E-2,-5.592633504E-3
3.110756674E0,-1.198421465E-3,-1.251684688E-2,-4.527369980E-3
3.113269747E0,-3.328948515E-3,-1.251684688E-2,-2.663158812E-4
3.115782872E0,-4.394211806E-3,-6.125265267E-3,-2.663158812E-4
3.118295944E0,-1.398158353E-2,-1.251684688E-2,-2.663158812E-4
3.120809017E0,-1.504684705E-2,-1.358211040E-2,1.864211168E-3
3.123322142E0,-1.824263856E-2,-1.464737393E-2,-2.663158812E-4
3.125835215E0,-2.356895618E-2,-1.358211040E-2,-2.663158812E-4
3.128348288E0,-2.676474676E-2,-1.358211040E-2,7.989476435E-4
3.130861413E0,-2.996053733E-2,-1.571263745E-2,2.929474693E-3
3.133374486E0,-3.209106252E-2,-1.677790098E-2,5.060001742E-3
3.135887611E0,-3.635211661E-2,-1.677790098E-2,7.190528791E-3
3.138400684E0,-3.528685495E-2,-1.677790098E-2,8.255792782E-3
3.140913757E0,-3.848264366E-2,-1.677790098E-2,1.038631983E-2
3.143426882E0,-3.741738200E-2,-1.890842803E-2,1.251684688E-2
3.145939955E0,-3.741738200E-2,-2.103895508E-2,8.255792782E-3
3.148453080E0,-3.848264366E-2,-2.103895508E-2,1.145158336E-2
3.150966153E0,-3.741738200E-2,-1.997369155E-2,1.358211040E-2
3.153479226E0,-3.954790905E-2,-1.890842803E-2,1.145158336E-2
3.155992351E0,-4.061317071E-2,-1.890842803E-2,1.038631983E-2
3.158505424E0,-3.741738200E-2,-1.890842803E-2,1.464737393E-2
3.161018497E0,-3.741738200E-2,-1.784316450E-2,1.464737393E-2
3.163531622E0,-3.635211661E-2,-1.997369155E-2,1.358211040E-2
3.166044694E0,-3.741738200E-2,-1.784316450E-2,1.145158336E-2
3.168557819E0,-3.635211661E-2,-1.571263745E-2,1.358211040E-2
3.171070892E0,-3.954790905E-2,-1.784316450E-2,1.464737393E-2
3.173583965E0,-3.848264366E-2,-1.251684688E-2,1.677790098E-2
3.176097090E0,-3.528685495E-2,-1.145158336E-2,1.677790098E-2
3.178610163E0,-3.528685495E-2,-1.145158336E-2,1.997369155E-2
3.181123288E0,-3.741738200E-2,-9.321056306E-3,2.423474565E-2
3.183636361E0,-3.635211661E-2,-9.321056306E-3,2.423474565E-2
3.186149434E0,-3.528685495E-2,-6.125265267E-3,2.316948213E-2
3.188662559E0,-3.102580085E-2,-6.125265267E-3,2.530000918E-2
3.191175632E0,-3.102580085E-2,-3.994738217E-3,2.636527270E-2
3.193688705E0,-3.315632790E-2,-3.994738217E-3,2.636527270E-2
3.196201830E0,-2.996053733E-2,-3.994738217E-3,2.743053623E-2
3.198714903E0,-3.209106252E-2,-8.255792782E-3,2.743053623E-2
3.201228028E0,-2.889527380E-2,-8.255792782E-3,2.849579975E-2
3.203741101E0,-2.676474676E-2,-7.190528791E-3,2.956106327E-2
3.206254174E0,-2.676474676E-2,-6.125265267E-3,2.956106327E-2
3.208767299E0,-2.889527380E-2,-3.994738217E-3,3.488738090E-2
3.211280372E0,-3.102580085E-2,-7.190528791E-3,3.382211551E-2
3.213793497E0,-3.209106252E-2,-9.321056306E-3,3.382211551E-2
3.216306569E0,-3.102580085E-2,-9.321056306E-3,4.021369666E-2
3.218819642E0,-3.102580085E-2,-1.145158336E-2,4.127896205E-2
3.221332767E0,-2.889527380E-2,-1.358211040E-2,3.701790795E-2
3.223845840E0,-2.996053733E-2,-1.145158336E-2,3.808316961E-2
3.226358913E0,-3.315632790E-2,-1.251684688E-2,4.021369666E-2
3.228872038E0,-3.635211661E-2,-1.571263745E-2,4.447475076E-2
3.231385111E0,-3.422158957E-2,-1.358211040E-2,4.234422371E-2
3.233898236E0,-3.422158957E-2,-1.145158336E-2,4.127896205E-2
3.236411309E0,-3.528685495E-2,-1.464737393E-2,4.447475076E-2
3.238924382E0,-3.315632790E-2,-1.571263745E-2,4.447475076E-2
3.241437507E0,-3.741738200E-2,-1.358211040E-2,4.447475076E-2
3.243950580E0,-4.380896315E-2,-1.358211040E-2,4.447475076E-2
3.246463705E0,-4.593949020E-2,-1.358211040E-2,4.447475076E-2
3.248976778E0,-4.061317071E-2,-1.038631983E-2,4.767054319E-2
3.251489851E0,-4.167843610E-2,-9.321056306E-3,4.980107024E-2
3.254002976E0,-4.487422481E-2,-9.321056306E-3,4.767054319E-2
3.256516049E0,-4.593949020E-2,-7.190528791E-3,4.767054319E-2
3.259029122E0,-4.487422481E-2,-7.989476435E-4,4.660527781E-2
3.261542247E0,-4.807001725E-2,-6.125265267E-3,4.767054319E-2
3.264055319E0,-5.233107135E-2,-3.994738217E-3,4.767054319E-2
3.266568444E0,-5.233107135E-2,-3.994738217E-3,4.767054319E-2
3.269081517E0,-5.020054430E-2,-3.994738217E-3,4.660527781E-2
3.271594590E0,-5.126580596E-2,-3.994738217E-3,4.554001614E-2
3.274107715E0,-4.913527891E-2,-2.929474693E-3,4.447475076E-2
3.276620788E0,-5.020054430E-2,-3.994738217E-3,4.554001614E-2
3.279133913E0,-5.126580596E-2,-3.994738217E-3,4.660527781E-2
3.281646986E0,-5.126580596E-2,-5.060001742E-3,4.660527781E-2
3.284160059E0,-5.020054430E-2,-3.994738217E-3,4.340948910E-2
3.286673184E0,-5.126580596E-2,-5.060001742E-3,4.447475076E-2
3.289186257E0,-5.020054430E-2,-6.125265267E-3,4.447475076E-2
3.291699330E0,-5.126580596E-2,-5.060001742E-3,4.340948910E-2
3.294212455E0,-5.233107135E-2,-5.060001742E-3,4.554001614E-2
3.296725528E0,-5.233107135E-2,-5.060001742E-3,4.660527781E-2
3.299238653E0,-5.233107135E-2,-3.994738217E-3,4.767054319E-2
3.301751726E0,-5.659212545E-2,-9.321056306E-3,4.447475076E-2
3.304264799E0,-5.446159840E-2,-1.038631983E-2,4.447475076E-2
3.306777924E0,-5.552686006E-2,-1.038631983E-2,4.340948910E-2
3.309290997E0,-5.659212545E-2,-1.145158336E-2,4.554001614E-2
3.311804122E0,-5.765738711E-2,-1.145158336E-2,4.660527781E-2
3.314317194E0,-5.765738711E-2,-1.038631983E-2,4.660527781E-2
3.316830267E0,-5.552686006E-2,-1.038631983E-2,4.660527781E-2
3.319343392E0,-5.659212545E-2,-1.038631983E-2,4.554001614E-2
3.321856465E0,-5.659212545E-2,-1.038631983E-2,4.554001614E-2
3.324369590E0,-5.872265249E-2,-1.038631983E-2,4.660527781E-2
3.326882663E0,-5.872265249E-2,-1.251684688E-2,4.767054319E-2
3.329395736E0,-5.978791416E-2,-1.145158336E-2,4.340948910E-2
3.331908861E0,-6.404896826E-2,-1.251684688E-2,4.340948910E-2
3.334421934E0,-6.191844121E-2,-1.038631983E-2,4.234422371E-2
3.336935007E0,-6.404896826E-2,-1.251684688E-2,4.340948910E-2
3.339448132E0,-6.831002235E-2,-1.358211040E-2,4.127896205E-2
3.341961205E0,-6.831002235E-2,-1.358211040E-2,4.554001614E-2
3.344474330E0,-7.044055313E-2,-1.251684688E-2,4.554001614E-2
3.346987403E0,-7.257107645E-2,-1.251684688E-2,4.234422371E-2
3.349500476E0,-7.257107645E-2,-1.145158336E-2,4.234422371E-2
3.352013601E0,-7.150581479E-2,-8.255792782E-3,4.340948910E-2
3.354526674E0,-7.896266133E-2,-5.060001742E-3,4.340948910E-2
3.357039799E0,-7.683213055E-2,-3.994738217E-3,4.127896205E-2
3.359552872E0,-7.363633811E-2,-5.060001742E-3,4.447475076E-2
3.362065944E0,-7.470160723E-2,-6.125265267E-3,4.447475076E-2
3.364579069E0,-7.576686889E-2,-7.190528791E-3,4.340948910E-2
3.367092142E0,-7.363633811E-2,-7.190528791E-3,4.234422371E-2
3.369605215E0,-7.150581479E-2,-8.255792782E-3,3.808316961E-2
3.372118340E0,-7.150581479E-2,-8.255792782E-3,3.808316961E-2
3.374631413E0,-6.724476069E-2,-1.251684688E-2,4.127896205E-2
3.377144538E0,-6.404896826E-2,-1.464737393E-2,3.488738090E-2
3.379657611E0,-6.724476069E-2,-1.464737393E-2,3.488738090E-2
3.382170684E0,-6.724476069E-2,-1.358211040E-2,3.808316961E-2
3.384683809E0,-6.724476069E-2,-1.571263745E-2,3.808316961E-2
3.387196882E0,-6.724476069E-2,-1.677790098E-2,3.701790795E-2
3.389710007E0,-6.724476069E-2,-1.784316450E-2,3.808316961E-2
3.392223080E0,-6.831002235E-2,-1.997369155E-2,3.595264256E-2
3.394736153E0,-6.617949903E-2,-2.210421860E-2,3.701790795E-2
3.397249278E0,-6.831002235E-2,-2.530000918E-2,3.914843500E-2
3.399762351E0,-6.831002235E-2,-2.849579975E-2,3.914843500E-2
3.402275424E0,-6.617949903E-2,-2.743053623E-2,4.127896205E-2
3.404788549E0,-6.831002235E-2,-2.636527270E-2,3.914843500E-2
3.407301622E0,-6.831002235E-2,-2.316948213E-2,3.914843500E-2
3.409814747E0,-6.831002235E-2,-2.316948213E-2,3.914843500E-2
3.412327819E0,-6.724476069E-2,-2.210421860E-2,4.127896205E-2
3.414840892E0,-6.617949903E-2,-1.784316450E-2,4.021369666E-2
3.417354017E0,-6.511422992E-2,-1.997369155E-2,4.127896205E-2
3.419867090E0,-6.404896826E-2,-1.784316450E-2,4.234422371E-2
3.422380215E0,-6.298370659E-2,-1.464737393E-2,4.234422371E-2
3.424893288E0,-6.404896826E-2,-1.464737393E-2,4.127896205E-2
3.427406361E0,-6.191844121E-2,-1.358211040E-2,4.340948910E-2
3.429919486E0,-5.872265249E-2,-1.145158336E-2,4.340948910E-2
3.432432559E0,-5.872265249E-2,-1.038631983E-2,4.340948910E-2
3.434945632E0,-5.446159840E-2,-8.255792782E-3,4.554001614E-2
3.437458757E0,-5.765738711E-2,-7.989476435E-4,4.660527781E-2
3.439971830E0,-6.085317954E-2,1.331579406E-3,4.767054319E-2
3.442484955E0,-5.872265249E-2,2.396842930E-3,4.660527781E-2
3.444998028E0,-6.191844121E-2,5.592633504E-3,4.767054319E-2
3.447511101E0,-6.404896826E-2,1.091895066E-2,4.873580486E-2
3.450024174E0,-6.298370659E-2,1.944105886E-2,4.980107024E-2
3.452537299E0,-6.298370659E-2,2.476737648E-2,4.980107024E-2
3.455050372E0,-6.617949903E-2,3.115895763E-2,5.299685895E-2
3.457563497E0,-7.044055313E-2,3.968106583E-2,5.299685895E-2
3.460076569E0,-7.257107645E-2,4.287685826E-2,5.193159729E-2
3.462589694E0,-7.470160723E-2,4.926843941E-2,5.086633191E-2
3.465102767E0,-7.576686889E-2,5.779054761E-2,5.193159729E-2
3.467615892E0,-7.789739221E-2,6.418212503E-2,5.193159729E-2
3.470128965E0,-8.215844631E-2,6.418212503E-2,4.980107024E-2
3.472642090E0,-8.535423875E-2,6.524739414E-2,4.767054319E-2
3.475155163E0,-8.961529285E-2,7.057370991E-2,4.660527781E-2
3.477668288E0,-9.068055451E-2,7.590002567E-2,4.980107024E-2
3.480181361E0,-9.494160861E-2,7.590002567E-2,5.086633191E-2
3.482694486E0,-9.707213938E-2,8.122634143E-2,4.873580486E-2
3.485207559E0,-1.045289859E-1,8.442213386E-2,4.447475076E-2
3.487720684E0,-1.141163558E-1,8.868318796E-2,4.340948910E-2
3.490233757E0,-1.173121482E-1,9.294424206E-2,4.447475076E-2
3.492746882E0,-1.247689873E-1,1.004010886E-1,4.873580486E-2
3.495259955E0,-1.290300488E-1,1.035968810E-1,4.873580486E-2
3.497773080E0,-1.343563646E-1,1.099884585E-1,4.980107024E-2
3.500286153E0,-1.460742652E-1,1.153147742E-1,5.193159729E-2
3.502799278E0,-1.492700577E-1,1.206410974E-1,5.406212434E-2
3.505312351E0,-1.524658352E-1,1.280979365E-1,5.725791305E-2
3.507825476E0,-1.577921659E-1,1.323589981E-1,6.258422881E-2
3.510338549E0,-1.631184816E-1,1.302284598E-1,6.791055202E-2
3.512851674E0,-1.641837358E-1,1.291632056E-1,6.684528291E-2
3.515364747E0,-1.663142741E-1,1.270326823E-1,7.217160612E-2
3.517877872E0,-1.695100516E-1,1.206410974E-1,8.069371432E-2
3.520390944E0,-1.695100516E-1,1.142495126E-1,7.962844521E-2
3.522904069E0,-1.673795283E-1,1.078579351E-1,8.495476842E-2
3.525417142E0,-1.663142741E-1,1.035968810E-1,9.134634584E-2
3.527930267E0,-1.620532125E-1,1.046621427E-1,9.880319238E-2
3.530443340E0,-1.588574201E-1,9.933582693E-2,9.880319238E-2
3.532956465E0,-1.567268968E-1,9.614003450E-2,1.030642465E-1
3.535469538E0,-1.503353119E-1,9.187898040E-2,1.115863547E-1
3.537982611E0,-1.460742652E-1,8.974844962E-2,1.169126704E-1
3.540495736E0,-1.407479495E-1,8.548739552E-2,1.211737245E-1
3.543008809E0,-1.354216188E-1,8.122634143E-2,1.243695170E-1
3.545521934E0,-1.290300488E-1,7.270423323E-2,1.296958327E-1
3.548035007E0,-1.268995106E-1,6.631265581E-2,1.339568943E-1
3.550548132E0,-1.173121482E-1,6.205160171E-2,1.424790025E-1
3.553061205E0,-1.098553017E-1,5.885580927E-2,1.478053182E-1
3.555574330E0,-1.045289859E-1,5.352949351E-2,1.510011107E-1
3.558087403E0,-1.002679318E-1,5.352949351E-2,1.605884731E-1
3.560600528E0,-9.281108528E-2,5.139896646E-2,1.627189964E-1
3.563113601E0,-8.535423875E-2,4.713791236E-2,1.637842655E-1
3.565626726E0,-8.002792299E-2,4.820317402E-2,1.680453271E-1
3.568139799E0,-7.470160723E-2,4.820317402E-2,1.669800580E-1
3.570652924E0,-6.831002235E-2,5.139896646E-2,1.701758504E-1
3.573165997E0,-6.298370659E-2,5.459475517E-2,1.765674353E-1
3.575679122E0,-5.552686006E-2,5.885580927E-2,1.765674353E-1
3.578192194E0,-5.552686006E-2,6.631265581E-2,1.786979586E-1
3.580705319E0,-5.233107135E-2,7.590002567E-2,1.818937510E-1
3.583218392E0,-5.020054430E-2,8.868318796E-2,1.850895435E-1
3.585731517E0,-4.807001725E-2,9.400950372E-2,1.829590052E-1
3.588244590E0,-4.487422481E-2,1.014663503E-1,1.808284819E-1
3.590757715E0,-4.274369776E-2,1.142495126E-1,1.818937510E-1
3.593270788E0,-4.167843610E-2,1.195758283E-1,1.818937510E-1
3.595783913E0,-4.167843610E-2,1.280979365E-1,1.829590052E-1
3.598296986E0,-4.274369776E-2,1.376853138E-1,1.808284819E-1
3.600810111E0,-4.487422481E-2,1.472726762E-1,1.786979586E-1
3.603323184E0,-4.593949020E-2,1.557947844E-1,1.776326895E-1
3.605836309E0,-4.593949020E-2,1.621863693E-1,1.776326895E-1
3.608349382E0,-5.126580596E-2,1.717737466E-1,1.744368970E-1
3.610862507E0,-5.020054430E-2,1.824263781E-1,1.701758504E-1
3.613375580E0,-5.552686006E-2,1.877526939E-1,1.669800580E-1
3.615888705E0,-6.085317954E-2,1.920137554E-1,1.659147888E-1
3.618401778E0,-6.511422992E-2,1.930790097E-1,1.616537422E-1
3.620914903E0,-6.617949903E-2,1.962748021E-1,1.573926806E-1
3.623427976E0,-7.257107645E-2,1.984053254E-1,1.510011107E-1
3.625941101E0,-7.789739221E-2,1.973400712E-1,1.478053182E-1
3.628454174E0,-8.002792299E-2,1.920137554E-1,1.435442567E-1
3.630967299E0,-8.748476952E-2,1.920137554E-1,1.414137334E-1
3.633480372E0,-9.707213938E-2,1.877526939E-1,1.382179409E-1
3.635993497E0,-1.077247709E-1,1.824263781E-1,1.371526718E-1
3.638506569E0,-1.130510941E-1,1.760347933E-1,1.318263561E-1
3.641019694E0,-1.205079332E-1,1.685779542E-1,1.275653094E-1
3.643532767E0,-1.290300488E-1,1.611211151E-1,1.243695170E-1
3.646045892E0,-1.322258413E-1,1.557947844E-1,1.254347861E-1
3.648558965E0,-1.407479495E-1,1.515337378E-1,1.243695170E-1
3.651072090E0,-1.545963734E-1,1.419463605E-1,1.190432012E-1
3.653585163E0,-1.599226892E-1,1.302284598E-1,1.169126704E-1
3.656098288E0,-1.631184816E-1,1.238368824E-1,1.137168780E-1
3.658611361E0,-1.748363823E-1,1.142495126E-1,1.105210930E-1
3.661124486E0,-1.833584905E-1,1.057274044E-1,1.105210930E-1
3.663637559E0,-1.876195371E-1,9.507477283E-2,1.051947698E-1
3.666150684E0,-1.982721686E-1,8.868318796E-2,1.019989848E-1
3.668663757E0,-2.046637535E-1,7.803055644E-2,9.667266160E-2
3.671176882E0,-2.078595459E-1,6.950844824E-2,9.241160750E-2
3.673689955E0,-2.142511308E-1,6.418212503E-2,9.134634584E-2
3.676203080E0,-2.163816541E-1,5.459475517E-2,9.028108418E-2
3.678716153E0,-2.185121775E-1,5.033370107E-2,9.028108418E-2
3.681229278E0,-2.217079699E-1,4.926843941E-2,8.921582252E-2
3.683742351E0,-2.227732390E-1,4.394211993E-2,9.028108418E-2
3.686255476E0,-2.217079699E-1,4.287685826E-2,8.921582252E-2
3.688768549E0,-2.206427008E-1,3.968106583E-2,8.815055341E-2
3.691281674E0,-2.185121775E-1,3.648527712E-2,8.921582252E-2
3.693794747E0,-2.121205926E-1,3.968106583E-2,9.241160750E-2
3.696307872E0,-2.067942768E-1,3.435475007E-2,9.560739994E-2
3.698820944E0,-2.014679611E-1,3.542001173E-2,9.880319238E-2
3.701334069E0,-1.918805987E-1,3.115895763E-2,1.009337157E-1
3.703847142E0,-1.865542680E-1,2.689790353E-2,1.019989848E-1
3.706360267E0,-1.822932214E-1,2.370211296E-2,1.062600389E-1
3.708873340E0,-1.727058440E-1,1.731053181E-2,1.083905622E-1
3.711386465E0,-1.609879434E-1,1.518000476E-2,1.105210930E-1
3.713899538E0,-1.545963734E-1,1.518000476E-2,1.105210930E-1
3.716412663E0,-1.407479495E-1,1.518000476E-2,1.105210930E-1
3.718925736E0,-1.322258413E-1,1.624526829E-2,1.158474088E-1
3.721438861E0,-1.258342564E-1,1.944105886E-2,1.179779321E-1
3.723951934E0,-1.141163558E-1,2.157158591E-2,1.137168780E-1
3.726465059E0,-1.066595092E-1,2.583264001E-2,1.179779321E-1
3.728978132E0,-9.707213938E-2,3.009369411E-2,1.158474088E-1
3.731491257E0,-8.961529285E-2,3.222422302E-2,1.201084629E-1
3.734004330E0,-8.215844631E-2,3.435475007E-2,1.211737245E-1
3.736517455E0,-7.257107645E-2,4.287685826E-2,1.233042553E-1
3.739030528E0,-6.511422992E-2,4.820317402E-2,1.222389862E-1
3.741543653E0,-6.085317954E-2,5.033370107E-2,1.233042553E-1
3.744056726E0,-5.659212545E-2,4.820317402E-2,1.222389862E-1
3.746569851E0,-5.020054430E-2,4.926843941E-2,1.211737245E-1
3.749082924E0,-4.167843610E-2,5.139896646E-2,1.222389862E-1
3.751596049E0,-3.741738200E-2,4.926843941E-2,1.222389862E-1
3.754109122E0,-3.102580085E-2,4.500738531E-2,1.190432012E-1
3.756622247E0,-2.783001028E-2,3.435475007E-2,1.147821471E-1
3.759135319E0,-2.143842913E-2,2.583264001E-2,1.105210930E-1
3.761648444E0,-1.717737503E-2,1.518000476E-2,1.094558239E-1
3.764161517E0,-8.655265905E-3,4.527369980E-3,1.073253006E-1
3.766674642E0,-4.394211806E-3,-6.125265267E-3,1.030642465E-1
3.769187715E0,-2.263684990E-3,-1.464737393E-2,1.009337157E-1
3.771700840E0,6.258423440E-3,-2.423474565E-2,9.986845404E-2
3.774213913E0,9.454214014E-3,-3.595264256E-2,9.880319238E-2
3.776727038E0,1.265000459E-2,-4.340948910E-2,9.667266160E-2
3.779240111E0,1.691105776E-2,-4.980107024E-2,9.560739994E-2
3.781753236E0,1.904158480E-2,-5.619265139E-2,9.347687662E-2
3.784266309E0,2.117211185E-2,-5.832317844E-2,9.454213828E-2
3.786779434E0,2.543316595E-2,-5.832317844E-2,9.134634584E-2
3.789292507E0,2.862895653E-2,-6.364949793E-2,8.921582252E-2
3.791805632E0,3.075948358E-2,-6.364949793E-2,8.815055341E-2
3.794318705E0,3.182474896E-2,-6.258422881E-2,8.708529174E-2
3.796831830E0,3.608580306E-2,-6.151896715E-2,8.495476842E-2
3.799344903E0,4.034685716E-2,-5.619265139E-2,8.388949931E-2
3.801858028E0,3.821633011E-2,-5.512738600E-2,8.069371432E-2
3.804371101E0,4.354264587E-2,-5.086633191E-2,7.749792188E-2
3.806884226E0,4.886896536E-2,-4.980107024E-2,7.962844521E-2
3.809397299E0,4.886896536E-2,-4.767054319E-2,8.069371432E-2
3.811910424E0,5.313001946E-2,-4.340948910E-2,7.962844521E-2
3.814423497E0,5.632580817E-2,-4.767054319E-2,7.856318355E-2
3.816936622E0,6.058686227E-2,-4.447475076E-2,7.856318355E-2
3.819449694E0,6.058686227E-2,-4.234422371E-2,7.643266022E-2
3.821962819E0,5.952160060E-2,-4.340948910E-2,7.323686779E-2
3.824475892E0,6.271739304E-2,-4.767054319E-2,7.217160612E-2
3.826989017E0,6.378265470E-2,-4.767054319E-2,7.110633701E-2
3.829502090E0,5.952160060E-2,-5.406212434E-2,7.110633701E-2
3.832015215E0,6.058686227E-2,-5.725791305E-2,7.004107535E-2
3.834528288E0,5.632580817E-2,-6.151896715E-2,6.364949793E-2
3.837041413E0,5.099949241E-2,-6.364949793E-2,6.364949793E-2
3.839554486E0,4.993422702E-2,-6.364949793E-2,6.471475959E-2
3.842067611E0,4.354264587E-2,-6.151896715E-2,6.045370549E-2
3.844580684E0,3.715106472E-2,-6.471475959E-2,5.619265139E-2
3.847093809E0,3.395527601E-2,-5.832317844E-2,5.938844010E-2
3.849606882E0,2.543316595E-2,-5.619265139E-2,5.725791305E-2
3.852120007E0,1.691105776E-2,-5.193159729E-2,5.299685895E-2
3.854633080E0,1.158474106E-2,-4.767054319E-2,5.512738600E-2
3.857146205E0,5.193159916E-3,-4.447475076E-2,5.512738600E-2
3.859659278E0,-3.328948515E-3,-4.021369666E-2,5.406212434E-2
3.862172403E0,-9.720529430E-3,-4.127896205E-2,5.299685895E-2
3.864685476E0,-1.504684705E-2,-3.808316961E-2,5.406212434E-2
3.867198601E0,-2.037316561E-2,-3.169158846E-2,4.873580486E-2
3.869711674E0,-2.356895618E-2,-2.956106327E-2,4.767054319E-2
3.872224799E0,-2.996053733E-2,-3.275685385E-2,4.554001614E-2
3.874737872E0,-3.528685495E-2,-3.062632680E-2,4.234422371E-2
3.877250997E0,-3.954790905E-2,-2.956106327E-2,4.127896205E-2
3.879764069E0,-4.380896315E-2,-2.849579975E-2,4.021369666E-2
3.882277194E0,-4.807001725E-2,-2.743053623E-2,4.021369666E-2
3.884790267E0,-4.700475186E-2,-2.743053623E-2,3.914843500E-2
3.887303392E0,-4.913527891E-2,-2.849579975E-2,4.021369666E-2
3.889816465E0,-5.552686006E-2,-2.956106327E-2,4.021369666E-2
3.892329590E0,-5.659212545E-2,-2.956106327E-2,3.382211551E-2
3.894842663E0,-5.978791416E-2,-2.743053623E-2,3.275685385E-2
3.897355788E0,-6.085317954E-2,-2.849579975E-2,2.956106327E-2
3.899868861E0,-6.298370659E-2,-3.169158846E-2,2.743053623E-2
3.902381986E0,-6.511422992E-2,-3.488738090E-2,2.636527270E-2
3.904895059E0,-6.937528402E-2,-3.488738090E-2,2.636527270E-2
3.907408184E0,-7.363633811E-2,-3.488738090E-2,2.316948213E-2
3.909921257E0,-7.576686889E-2,-3.914843500E-2,2.210421860E-2
3.912434382E0,-8.322371542E-2,-4.127896205E-2,2.423474565E-2
3.914947455E0,-8.748476952E-2,-3.914843500E-2,2.423474565E-2
3.917460580E0,-9.174582362E-2,-4.234422371E-2,2.636527270E-2
3.919973653E0,-9.174582362E-2,-4.660527781E-2,2.423474565E-2
3.922486778E0,-9.494160861E-2,-4.767054319E-2,2.530000918E-2
3.924999851E0,-9.813740104E-2,-4.980107024E-2,2.743053623E-2
3.927512976E0,-1.002679318E-1,-5.299685895E-2,2.636527270E-2
3.930026049E0,-9.920266271E-2,-5.193159729E-2,2.743053623E-2
3.932539122E0,-1.002679318E-1,-5.512738600E-2,2.849579975E-2
3.935052247E0,-1.013331935E-1,-5.619265139E-2,2.743053623E-2
3.937565319E0,-9.920266271E-2,-4.980107024E-2,2.743053623E-2
3.940078444E0,-9.920266271E-2,-4.767054319E-2,2.743053623E-2
3.942591517E0,-1.002679318E-1,-5.086633191E-2,3.062632680E-2
3.945104642E0,-9.600687772E-2,-4.980107024E-2,3.275685385E-2
3.947617715E0,-9.281108528E-2,-4.447475076E-2,3.595264256E-2
3.950130788E0,-9.068055451E-2,-4.021369666E-2,3.488738090E-2
3.952643913E0,-8.322371542E-2,-3.595264256E-2,3.595264256E-2
3.955156986E0,-8.428897709E-2,-3.169158846E-2,3.914843500E-2
3.957670059E0,-8.002792299E-2,-2.849579975E-2,3.701790795E-2
3.960183132E0,-7.896266133E-2,-2.636527270E-2,3.914843500E-2
3.962696205E0,-7.576686889E-2,-2.316948213E-2,3.914843500E-2
3.965209278E0,-7.150581479E-2,-2.530000918E-2,3.595264256E-2
3.967722403E0,-6.724476069E-2,-2.530000918E-2,3.595264256E-2
3.970235476E0,-6.617949903E-2,-2.530000918E-2,3.275685385E-2
3.972748549E0,-6.298370659E-2,-2.423474565E-2,3.595264256E-2
3.975261622E0,-5.872265249E-2,-2.530000918E-2,3.488738090E-2
3.977774694E0,-5.339633301E-2,-2.956106327E-2,3.382211551E-2
3.980287767E0,-4.807001725E-2,-2.849579975E-2,3.062632680E-2
3.982800892E0,-4.274369776E-2,-2.743053623E-2,3.062632680E-2
3.985313965E0,-4.167843610E-2,-3.275685385E-2,3.275685385E-2
3.987827038E0,-3.741738200E-2,-3.275685385E-2,3.169158846E-2
3.990340111E0,-3.102580085E-2,-2.956106327E-2,3.169158846E-2
3.992853184E0,-2.676474676E-2,-3.382211551E-2,3.169158846E-2
3.995366257E0,-2.250369266E-2,-3.382211551E-2,2.849579975E-2
3.997879382E0,-1.717737503E-2,-3.275685385E-2,2.743053623E-2
4.000392455E0,-1.185105648E-2,-3.488738090E-2,2.636527270E-2
4.002905528E0,-8.655265905E-3,-3.488738090E-2,2.530000918E-2
4.005418601E0,-5.459475331E-3,-3.701790795E-2,2.423474565E-2
4.007931674E0,-1.331579406E-4,-3.701790795E-2,2.423474565E-2
4.010444747E0,1.997369109E-3,-4.021369666E-2,2.316948213E-2
4.012957872E0,1.265000459E-2,-4.234422371E-2,2.423474565E-2
4.015470944E0,1.478053164E-2,-4.447475076E-2,2.636527270E-2
4.017984017E0,1.584579423E-2,-4.660527781E-2,2.530000918E-2
4.020497090E0,2.117211185E-2,-4.980107024E-2,2.636527270E-2
4.023010163E0,2.223737538E-2,-4.767054319E-2,2.636527270E-2
4.025523236E0,2.436790243E-2,-4.447475076E-2,2.743053623E-2
4.028036361E0,2.756369300E-2,-4.767054319E-2,2.849579975E-2
4.030549434E0,2.649842948E-2,-4.554001614E-2,2.530000918E-2
4.033062507E0,2.862895653E-2,-4.234422371E-2,2.636527270E-2
4.035575580E0,2.969422005E-2,-4.234422371E-2,2.423474565E-2
4.038088653E0,3.182474896E-2,-4.021369666E-2,2.316948213E-2
4.040601726E0,3.395527601E-2,-4.127896205E-2,2.423474565E-2
4.043114851E0,3.395527601E-2,-4.021369666E-2,2.423474565E-2
4.045627924E0,3.182474896E-2,-4.021369666E-2,2.210421860E-2
4.048140997E0,3.502053767E-2,-4.234422371E-2,2.316948213E-2
4.050654069E0,3.821633011E-2,-4.127896205E-2,1.997369155E-2
4.053167142E0,3.821633011E-2,-3.595264256E-2,1.890842803E-2
4.055680215E0,4.034685716E-2,-3.382211551E-2,1.677790098E-2
4.058193340E0,3.928159177E-2,-3.595264256E-2,1.571263745E-2
4.060706413E0,4.460791126E-2,-3.275685385E-2,1.464737393E-2
4.063219486E0,4.354264587E-2,-2.530000918E-2,1.571263745E-2
4.065732559E0,4.354264587E-2,-2.849579975E-2,1.358211040E-2
4.068245632E0,4.354264587E-2,-2.956106327E-2,1.251684688E-2
4.070758705E0,4.460791126E-2,-2.636527270E-2,1.358211040E-2
4.073271830E0,4.247738421E-2,-2.743053623E-2,1.251684688E-2
4.075784903E0,4.034685716E-2,-2.743053623E-2,1.038631983E-2
4.078297976E0,3.608580306E-2,-2.316948213E-2,1.145158336E-2
4.080811049E0,3.608580306E-2,-2.316948213E-2,8.255792782E-3
4.083324122E0,3.608580306E-2,-2.316948213E-2,9.321056306E-3
4.085837194E0,3.715106472E-2,-2.103895508E-2,9.321056306E-3
4.088350267E0,3.608580306E-2,-1.571263745E-2,1.038631983E-2
4.090863392E0,3.608580306E-2,-1.251684688E-2,1.038631983E-2
4.093376465E0,3.182474896E-2,-9.321056306E-3,9.321056306E-3
4.095889538E0,3.075948358E-2,-7.190528791E-3,8.255792782E-3
4.098402611E0,2.756369300E-2,-8.255792782E-3,1.145158336E-2
4.100915684E0,2.543316595E-2,-1.038631983E-2,1.145158336E-2
4.103428757E0,2.223737538E-2,-9.321056306E-3,1.038631983E-2
4.105941882E0,1.904158480E-2,-9.321056306E-3,1.145158336E-2
4.108454955E0,1.478053164E-2,-1.251684688E-2,1.038631983E-2
4.110968028E0,1.691105776E-2,-1.251684688E-2,8.255792782E-3
4.113481101E0,9.454214014E-3,-1.358211040E-2,1.038631983E-2
4.115994174E0,6.258423440E-3,-1.677790098E-2,1.251684688E-2
4.118507247E0,3.062632633E-3,-2.103895508E-2,1.145158336E-2
4.121020372E0,-4.394211806E-3,-2.316948213E-2,1.145158336E-2
4.123533444E0,-7.590002380E-3,-2.636527270E-2,1.251684688E-2
4.126046517E0,-1.078579295E-2,-3.062632680E-2,1.358211040E-2
4.128559590E0,-1.398158353E-2,-3.488738090E-2,1.358211040E-2
4.131072663E0,-1.824263856E-2,-3.382211551E-2,1.464737393E-2
4.133585736E0,-2.250369266E-2,-3.382211551E-2,1.464737393E-2
4.136098861E0,-2.356895618E-2,-3.275685385E-2,1.890842803E-2
4.138611934E0,-2.569948323E-2,-3.062632680E-2,1.997369155E-2
4.141125007E0,-2.676474676E-2,-2.849579975E-2,1.784316450E-2
4.143638080E0,-2.783001028E-2,-2.956106327E-2,2.103895508E-2
4.146151153E0,-2.783001028E-2,-2.743053623E-2,1.890842803E-2
4.148664226E0,-2.889527380E-2,-2.743053623E-2,1.997369155E-2
4.151177351E0,-2.889527380E-2,-2.636527270E-2,2.103895508E-2
4.153690424E0,-3.102580085E-2,-2.530000918E-2,1.997369155E-2
4.156203497E0,-3.209106252E-2,-2.636527270E-2,2.423474565E-2
4.158716569E0,-3.102580085E-2,-2.210421860E-2,2.210421860E-2
4.161229642E0,-3.209106252E-2,-1.890842803E-2,2.530000918E-2
4.163742715E0,-2.889527380E-2,-1.571263745E-2,2.743053623E-2
4.166255840E0,-2.889527380E-2,-1.571263745E-2,2.423474565E-2
4.168768913E0,-2.889527380E-2,-1.145158336E-2,2.743053623E-2
4.171281986E0,-2.569948323E-2,-1.038631983E-2,2.849579975E-2
4.173795059E0,-2.356895618E-2,-1.145158336E-2,2.636527270E-2
4.176308132E0,-2.356895618E-2,-9.321056306E-3,2.743053623E-2
4.178821205E0,-2.250369266E-2,-7.190528791E-3,2.530000918E-2
4.181334330E0,-2.143842913E-2,-8.255792782E-3,2.530000918E-2
4.183847403E0,-1.930790208E-2,-1.038631983E-2,2.530000918E-2
4.186360476E0,-1.824263856E-2,-7.190528791E-3,2.636527270E-2
4.188873549E0,-1.824263856E-2,-8.255792782E-3,2.849579975E-2
4.191386622E0,-1.717737503E-2,-1.145158336E-2,2.423474565E-2
4.193899694E0,-1.717737503E-2,-1.145158336E-2,2.423474565E-2
4.196412819E0,-1.398158353E-2,-9.321056306E-3,2.636527270E-2
4.198925892E0,-1.398158353E-2,-1.038631983E-2,2.636527270E-2
4.201438965E0,-1.504684705E-2,-1.038631983E-2,2.530000918E-2
4.203952038E0,-1.291632000E-2,-1.145158336E-2,2.636527270E-2
4.206465111E0,-1.291632000E-2,-1.038631983E-2,2.743053623E-2
4.208978184E0,-1.078579295E-2,-7.190528791E-3,2.743053623E-2
4.211491309E0,-1.078579295E-2,-6.125265267E-3,2.530000918E-2
4.214004382E0,-1.185105648E-2,-3.994738217E-3,2.636527270E-2
4.216517455E0,-1.185105648E-2,-2.929474693E-3,2.743053623E-2
4.219030528E0,-1.398158353E-2,-1.864211168E-3,3.169158846E-2
4.221543601E0,-1.504684705E-2,-7.989476435E-4,3.169158846E-2
4.224056674E0,-1.611211151E-2,-7.989476435E-4,2.956106327E-2
4.226569799E0,-1.824263856E-2,2.396842930E-3,2.956106327E-2
4.229082872E0,-1.504684705E-2,2.396842930E-3,2.849579975E-2
4.231595944E0,-2.143842913E-2,6.657897029E-3,3.062632680E-2
4.234109017E0,-2.143842913E-2,7.723160554E-3,3.169158846E-2
4.236622090E0,-2.037316561E-2,1.304947771E-2,3.062632680E-2
4.239135163E0,-1.930790208E-2,1.304947771E-2,3.382211551E-2
4.241648288E0,-1.504684705E-2,1.624526829E-2,3.701790795E-2
4.244161361E0,-1.078579295E-2,1.837579533E-2,3.488738090E-2
4.246674434E0,-1.185105648E-2,1.944105886E-2,3.382211551E-2
4.249187507E0,-1.185105648E-2,2.050632238E-2,3.275685385E-2
4.251700580E0,-7.590002380E-3,1.624526829E-2,3.275685385E-2
4.254213653E0,-8.655265905E-3,1.411474124E-2,3.275685385E-2
4.256726778E0,-9.720529430E-3,1.091895066E-2,3.169158846E-2
4.259239851E0,-8.655265905E-3,7.723160554E-3,2.956106327E-2
4.261752924E0,-1.185105648E-2,5.592633504E-3,3.169158846E-2
4.264265997E0,-8.655265905E-3,1.331579406E-3,3.062632680E-2
4.266779069E0,-9.720529430E-3,-1.864211168E-3,3.275685385E-2
4.269292142E0,-1.291632000E-2,-7.989476435E-4,2.849579975E-2
4.271805267E0,-1.185105648E-2,-7.989476435E-4,3.062632680E-2
4.274318340E0,-1.504684705E-2,-2.929474693E-3,2.849579975E-2
4.276831413E0,-1.930790208E-2,-2.929474693E-3,3.062632680E-2
4.279344486E0,-2.143842913E-2,-3.994738217E-3,3.169158846E-2
4.281857559E0,-2.356895618E-2,-3.994738217E-3,3.062632680E-2
4.284370632E0,-2.569948323E-2,2.396842930E-3,3.062632680E-2
4.286883757E0,-2.569948323E-2,1.331579406E-3,2.849579975E-2
4.289396830E0,-2.356895618E-2,4.527369980E-3,3.062632680E-2
4.291909903E0,-2.569948323E-2,7.723160554E-3,3.275685385E-2
4.294422976E0,-2.676474676E-2,1.304947771E-2,3.275685385E-2
4.296936049E0,-2.569948323E-2,1.518000476E-2,3.382211551E-2
4.299449122E0,-2.569948323E-2,1.837579533E-2,3.382211551E-2
4.301962247E0,-2.037316561E-2,2.263684943E-2,3.808316961E-2
4.304475319E0,-1.824263856E-2,2.476737648E-2,3.701790795E-2
4.306988392E0,-1.611211151E-2,2.583264001E-2,3.914843500E-2
4.309501465E0,-1.398158353E-2,2.796316706E-2,4.127896205E-2
4.312014538E0,-1.185105648E-2,2.902843058E-2,4.021369666E-2
4.314527611E0,-9.720529430E-3,2.583264001E-2,4.127896205E-2
4.317040736E0,-9.720529430E-3,1.944105886E-2,4.340948910E-2
4.319553809E0,-6.524738856E-3,1.411474124E-2,4.234422371E-2
4.322066882E0,-5.459475331E-3,8.788423613E-3,4.447475076E-2
4.324579955E0,-4.394211806E-3,6.657897029E-3,4.340948910E-2
4.327093028E0,-6.524738856E-3,4.527369980E-3,4.447475076E-2
4.329606101E0,-1.198421465E-3,2.663158812E-4,4.660527781E-2
4.332119226E0,-1.331579406E-4,-1.864211168E-3,4.980107024E-2
4.334632299E0,-1.331579406E-4,-7.989476435E-4,4.980107024E-2
4.337145372E0,9.321055841E-4,-3.994738217E-3,4.980107024E-2
4.339658444E0,-3.328948515E-3,-1.864211168E-3,5.086633191E-2
4.342171517E0,-4.394211806E-3,-5.060001742E-3,5.406212434E-2
4.344684590E0,-3.328948515E-3,-9.321056306E-3,5.086633191E-2
4.347197663E0,-7.590002380E-3,-7.190528791E-3,5.086633191E-2
4.349710788E0,-1.078579295E-2,-6.125265267E-3,4.980107024E-2
4.352223861E0,-9.720529430E-3,-8.255792782E-3,5.193159729E-2
4.354736934E0,-1.078579295E-2,-6.125265267E-3,5.299685895E-2
4.357250007E0,-1.078579295E-2,-3.994738217E-3,4.980107024E-2
4.359763080E0,-1.611211151E-2,-5.060001742E-3,5.086633191E-2
4.362276153E0,-1.611211151E-2,-6.125265267E-3,5.086633191E-2
4.364789278E0,-1.930790208E-2,-2.929474693E-3,4.980107024E-2
4.367302351E0,-1.717737503E-2,-5.060001742E-3,5.299685895E-2
4.369815424E0,-2.037316561E-2,-3.994738217E-3,5.193159729E-2
4.372328497E0,-2.250369266E-2,-1.864211168E-3,4.980107024E-2
4.374841569E0,-2.037316561E-2,-1.864211168E-3,4.873580486E-2
4.377354642E0,-1.930790208E-2,2.663158812E-4,4.767054319E-2
4.379867767E0,-2.143842913E-2,-1.864211168E-3,4.660527781E-2
4.382380840E0,-2.143842913E-2,-5.060001742E-3,4.660527781E-2
4.384893913E0,-2.250369266E-2,-7.190528791E-3,4.127896205E-2
4.387406986E0,-2.037316561E-2,-1.038631983E-2,4.447475076E-2
4.389920059E0,-2.143842913E-2,-7.190528791E-3,4.554001614E-2
4.392433132E0,-2.037316561E-2,-9.321056306E-3,4.127896205E-2
4.394946257E0,-1.930790208E-2,-1.251684688E-2,4.234422371E-2
4.397459330E0,-1.930790208E-2,-1.145158336E-2,4.340948910E-2
4.399972403E0,-1.930790208E-2,-9.321056306E-3,3.914843500E-2
4.402485476E0,-1.504684705E-2,-1.145158336E-2,4.021369666E-2
4.404998549E0,-1.504684705E-2,-1.145158336E-2,4.127896205E-2
4.407511622E0,-1.291632000E-2,-9.321056306E-3,4.234422371E-2
4.410024747E0,-1.504684705E-2,-1.145158336E-2,4.554001614E-2
4.412537819E0,-9.720529430E-3,-1.038631983E-2,4.447475076E-2
4.415050892E0,-1.078579295E-2,-6.125265267E-3,4.554001614E-2
4.417563965E0,-7.590002380E-3,-7.190528791E-3,4.554001614E-2
4.420077038E0,-6.524738856E-3,-6.125265267E-3,4.447475076E-2
4.422590111E0,-7.590002380E-3,-3.994738217E-3,4.554001614E-2
4.425103236E0,-1.198421465E-3,-1.864211168E-3,4.660527781E-2
4.427616309E0,9.321055841E-4,1.331579406E-3,4.660527781E-2
4.430129382E0,9.321055841E-4,1.331579406E-3,4.660527781E-2
4.432642455E0,1.997369109E-3,2.663158812E-4,4.767054319E-2
4.435155528E0,4.127896391E-3,3.462106455E-3,4.980107024E-2
4.437668601E0,4.127896391E-3,5.592633504E-3,4.767054319E-2
4.440181726E0,3.062632633E-3,4.527369980E-3,4.660527781E-2
4.442694799E0,5.193159916E-3,3.462106455E-3,4.660527781E-2
4.445207872E0,1.997369109E-3,2.396842930E-3,4.660527781E-2
4.447720944E0,6.258423440E-3,2.663158812E-4,4.554001614E-2
4.450234069E0,5.193159916E-3,1.331579406E-3,4.660527781E-2
4.452747142E0,3.062632633E-3,2.663158812E-4,4.554001614E-2
4.455260215E0,1.997369109E-3,1.331579406E-3,4.660527781E-2
4.457773340E0,3.062632633E-3,6.657897029E-3,4.554001614E-2
4.460286413E0,-1.198421465E-3,8.788423613E-3,4.660527781E-2
4.462799486E0,-2.263684990E-3,6.657897029E-3,4.554001614E-2
4.465312611E0,1.997369109E-3,6.657897029E-3,4.234422371E-2
4.467825684E0,-3.328948515E-3,9.853687137E-3,4.127896205E-2
4.470338757E0,-4.394211806E-3,1.091895066E-2,3.914843500E-2
4.472851882E0,-2.263684990E-3,1.411474124E-2,3.701790795E-2
4.475364955E0,-2.263684990E-3,1.304947771E-2,3.914843500E-2
4.477878028E0,-3.328948515E-3,1.198421419E-2,3.595264256E-2
4.480391153E0,-4.394211806E-3,1.837579533E-2,3.382211551E-2
4.482904226E0,-5.459475331E-3,2.050632238E-2,3.488738090E-2
4.485417299E0,-6.524738856E-3,2.263684943E-2,3.382211551E-2
4.487930424E0,-7.590002380E-3,2.583264001E-2,3.488738090E-2
4.490443497E0,-9.720529430E-3,2.157158591E-2,3.488738090E-2
4.492956569E0,-1.504684705E-2,2.263684943E-2,3.595264256E-2
4.495469694E0,-1.504684705E-2,2.370211296E-2,3.488738090E-2
4.497982767E0,-1.504684705E-2,2.263684943E-2,3.169158846E-2
4.500495840E0,-1.717737503E-2,1.731053181E-2,3.275685385E-2
4.503008965E0,-2.037316561E-2,1.091895066E-2,3.488738090E-2
4.505522038E0,-2.356895618E-2,7.723160554E-3,3.062632680E-2
4.508035111E0,-2.250369266E-2,2.396842930E-3,2.743053623E-2
4.510548236E0,-2.143842913E-2,1.331579406E-3,2.530000918E-2
4.513061309E0,-2.569948323E-2,1.331579406E-3,2.423474565E-2
4.515574382E0,-2.783001028E-2,-3.994738217E-3,2.210421860E-2
4.518087507E0,-2.996053733E-2,-8.255792782E-3,2.210421860E-2
4.520600580E0,-3.102580085E-2,-7.190528791E-3,1.997369155E-2
4.523113705E0,-2.889527380E-2,-5.060001742E-3,1.784316450E-2
4.525626778E0,-2.996053733E-2,-5.060001742E-3,1.677790098E-2
4.528139851E0,-3.102580085E-2,-2.929474693E-3,1.464737393E-2
4.530652976E0,-2.996053733E-2,-1.864211168E-3,1.251684688E-2
4.533166049E0,-2.996053733E-2,-1.864211168E-3,9.321056306E-3
4.535679122E0,-2.783001028E-2,-1.864211168E-3,7.190528791E-3
4.538192247E0,-3.528685495E-2,3.462106455E-3,1.038631983E-2
4.540705319E0,-3.528685495E-2,2.396842930E-3,9.321056306E-3
4.543218392E0,-3.422158957E-2,3.462106455E-3,1.038631983E-2
4.545731517E0,-3.102580085E-2,6.657897029E-3,8.255792782E-3
4.548244590E0,-3.102580085E-2,1.198421419E-2,1.251684688E-2
4.550757663E0,-3.102580085E-2,1.198421419E-2,1.038631983E-2
4.553270788E0,-2.889527380E-2,1.304947771E-2,8.255792782E-3
4.555783861E0,-2.676474676E-2,1.731053181E-2,1.038631983E-2
4.558296934E0,-2.463421971E-2,1.518000476E-2,1.251684688E-2
4.560810059E0,-2.037316561E-2,1.837579533E-2,1.251684688E-2
4.563323132E0,-1.717737503E-2,2.263684943E-2,1.677790098E-2
4.565836205E0,-1.185105648E-2,3.009369411E-2,1.890842803E-2
4.568349330E0,-8.655265905E-3,3.542001173E-2,1.784316450E-2
4.570862403E0,-4.394211806E-3,3.861580417E-2,1.784316450E-2
4.573375476E0,9.321055841E-4,4.394211993E-2,1.571263745E-2
4.575888601E0,5.193159916E-3,4.820317402E-2,1.464737393E-2
4.578401674E0,9.454214014E-3,4.820317402E-2,1.464737393E-2
4.580914747E0,8.388950489E-3,5.352949351E-2,9.321056306E-3
4.583427872E0,1.051947754E-2,5.779054761E-2,7.190528791E-3
4.585940944E0,1.051947754E-2,5.885580927E-2,5.060001742E-3
4.588454069E0,1.158474106E-2,5.885580927E-2,7.989476435E-4
4.590967142E0,6.258423440E-3,5.992107466E-2,-5.592633504E-3
4.593480215E0,3.062632633E-3,6.311686337E-2,-7.723160554E-3
4.595993340E0,9.321055841E-4,6.737791747E-2,-1.198421419E-2
4.598506413E0,-3.328948515E-3,6.737791747E-2,-1.411474124E-2
4.601019486E0,-5.459475331E-3,6.844317913E-2,-1.624526829E-2
4.603532611E0,-1.185105648E-2,6.737791747E-2,-2.050632238E-2
4.606045684E0,-1.504684705E-2,6.524739414E-2,-2.157158591E-2
4.608558757E0,-1.824263856E-2,6.631265581E-2,-2.263684943E-2
4.611071882E0,-2.356895618E-2,6.631265581E-2,-2.263684943E-2
4.613584955E0,-2.569948323E-2,6.418212503E-2,-2.370211296E-2
4.616098028E0,-2.463421971E-2,6.098633632E-2,-2.583264001E-2
4.618611153E0,-2.676474676E-2,5.566002056E-2,-2.689790353E-2
4.621124226E0,-2.463421971E-2,5.566002056E-2,-2.263684943E-2
4.623637299E0,-2.463421971E-2,4.820317402E-2,-2.370211296E-2
4.626150424E0,-2.250369266E-2,4.713791236E-2,-2.476737648E-2
4.628663497E0,-2.463421971E-2,4.181159288E-2,-2.370211296E-2
4.631176569E0,-2.250369266E-2,3.755053878E-2,-2.157158591E-2
4.633689694E0,-1.824263856E-2,3.542001173E-2,-2.476737648E-2
4.636202767E0,-1.291632000E-2,3.328948468E-2,-2.370211296E-2
4.638715840E0,-5.459475331E-3,3.009369411E-2,-2.157158591E-2
4.641228965E0,-1.331579406E-4,3.009369411E-2,-2.689790353E-2
4.643742038E0,6.258423440E-3,3.328948468E-2,-2.689790353E-2
4.646255111E0,9.454214014E-3,2.902843058E-2,-2.689790353E-2
4.648768236E0,1.478053164E-2,2.902843058E-2,-2.796316706E-2
4.651281309E0,2.223737538E-2,2.476737648E-2,-2.902843058E-2
4.653794382E0,2.756369300E-2,2.263684943E-2,-2.902843058E-2
4.656307507E0,3.395527601E-2,2.689790353E-2,-3.115895763E-2
4.658820580E0,4.141211882E-2,2.583264001E-2,-3.222422302E-2
4.661333705E0,4.886896536E-2,1.944105886E-2,-2.902843058E-2
4.663846778E0,5.313001946E-2,2.050632238E-2,-3.328948468E-2
4.666359851E0,5.952160060E-2,1.944105886E-2,-3.222422302E-2
4.668872976E0,6.697844714E-2,1.624526829E-2,-3.542001173E-2
4.671386049E0,7.337002456E-2,9.853687137E-3,-3.861580417E-2
4.673899122E0,7.443528622E-2,6.657897029E-3,-3.861580417E-2
4.676412247E0,8.189213276E-2,2.396842930E-3,-4.181159288E-2
4.678925319E0,8.295739442E-2,2.663158812E-4,-4.500738531E-2
4.681438392E0,8.615318686E-2,-3.994738217E-3,-4.713791236E-2
4.683951517E0,8.828371763E-2,-6.125265267E-3,-4.713791236E-2
4.686464590E0,9.147950262E-2,-1.038631983E-2,-5.139896646E-2
4.688977663E0,9.574055672E-2,-1.145158336E-2,-5.352949351E-2
4.691490788E0,9.574055672E-2,-1.464737393E-2,-5.459475517E-2
4.694003861E0,9.574055672E-2,-1.571263745E-2,-5.672528222E-2
4.696516934E0,9.893634915E-2,-1.358211040E-2,-5.992107466E-2
4.699030059E0,1.000016108E-1,-1.145158336E-2,-6.311686337E-2
4.701543132E0,1.042626649E-1,-1.145158336E-2,-6.524739414E-2
4.704056205E0,1.063931957E-1,-9.321056306E-3,-6.524739414E-2
4.706569330E0,1.085237190E-1,-9.321056306E-3,-6.737791747E-2
4.709082403E0,1.106542498E-1,-3.994738217E-3,-6.950844824E-2
4.711595476E0,1.117195114E-1,-3.994738217E-3,-7.376950234E-2
4.714108601E0,1.117195114E-1,-6.125265267E-3,-7.376950234E-2
4.716621674E0,1.138500422E-1,-6.125265267E-3,-7.696528733E-2
4.719134747E0,1.159805655E-1,-3.994738217E-3,-8.016107976E-2
4.721647872E0,1.138500422E-1,-5.060001742E-3,-7.909581810E-2
4.724160944E0,1.170458272E-1,-1.251684688E-2,-7.696528733E-2
4.726674069E0,1.213068813E-1,-1.571263745E-2,-8.122634143E-2
4.729187142E0,1.191763580E-1,-1.571263745E-2,-8.229161054E-2
4.731700215E0,1.223721504E-1,-1.890842803E-2,-8.229161054E-2
4.734213340E0,1.191763580E-1,-1.358211040E-2,-8.548739552E-2
4.736726413E0,1.213068813E-1,-1.677790098E-2,-8.761792630E-2
4.739239486E0,1.234374121E-1,-1.677790098E-2,-8.974844962E-2
4.741752611E0,1.202416196E-1,-1.571263745E-2,-9.400950372E-2
4.744265684E0,1.149153039E-1,-1.571263745E-2,-9.827055782E-2
4.746778757E0,1.127847731E-1,-1.571263745E-2,-9.933582693E-2
4.749291882E0,1.106542498E-1,-1.358211040E-2,-1.035968810E-1
4.751804955E0,1.074584574E-1,-1.464737393E-2,-1.089231968E-1
4.754318028E0,1.031974033E-1,-1.145158336E-2,-1.142495126E-1
4.756831153E0,9.574055672E-2,-7.190528791E-3,-1.153147742E-1
4.759344226E0,8.615318686E-2,-6.125265267E-3,-1.185105667E-1
4.761857299E0,8.508792520E-2,-5.060001742E-3,-1.217063591E-1
4.764370424E0,8.082687110E-2,-2.929474693E-3,-1.280979365E-1
4.766883497E0,7.123950124E-2,-3.994738217E-3,-1.291632056E-1
4.769396569E0,6.378265470E-2,-7.989476435E-4,-1.323589981E-1
4.771909694E0,5.952160060E-2,2.663158812E-4,-1.334242523E-1
4.774422767E0,5.845633522E-2,4.527369980E-3,-1.366200447E-1
4.776935840E0,5.313001946E-2,7.723160554E-3,-1.408811063E-1
4.779448965E0,5.206475407E-2,8.788423613E-3,-1.440768987E-1
4.781962038E0,4.780369997E-2,6.657897029E-3,-1.451421529E-1
4.784475111E0,4.354264587E-2,1.091895066E-2,-1.451421529E-1
4.786988236E0,4.354264587E-2,1.304947771E-2,-1.483379453E-1
4.789501309E0,3.928159177E-2,1.198421419E-2,-1.483379453E-1
4.792014434E0,3.608580306E-2,1.198421419E-2,-1.472726762E-1
4.794527507E0,3.821633011E-2,1.304947771E-2,-1.483379453E-1
4.797040580E0,3.395527601E-2,1.411474124E-2,-1.525990069E-1
4.799553705E0,3.075948358E-2,1.198421419E-2,-1.525990069E-1
4.802066778E0,3.075948358E-2,1.411474124E-2,-1.515337378E-1
4.804579851E0,2.436790243E-2,1.624526829E-2,-1.536642611E-1
4.807092976E0,2.117211185E-2,1.731053181E-2,-1.557947844E-1
4.809606049E0,1.904158480E-2,1.837579533E-2,-1.547295302E-1
4.812119122E0,1.478053164E-2,1.518000476E-2,-1.547295302E-1
4.814632247E0,1.265000459E-2,1.837579533E-2,-1.557947844E-1
4.817145319E0,1.158474106E-2,1.731053181E-2,-1.547295302E-1
4.819658392E0,6.258423440E-3,1.944105886E-2,-1.525990069E-1
4.822171517E0,-1.198421465E-3,2.370211296E-2,-1.515337378E-1
4.824684590E0,-4.394211806E-3,2.476737648E-2,-1.515337378E-1
4.827197663E0,-7.590002380E-3,2.370211296E-2,-1.515337378E-1
4.829710788E0,-7.590002380E-3,3.009369411E-2,-1.472726762E-1
4.832223861E0,-8.655265905E-3,3.115895763E-2,-1.472726762E-1
4.834736934E0,-1.078579295E-2,3.115895763E-2,-1.494032145E-1
4.837250059E0,-1.611211151E-2,2.902843058E-2,-1.462074220E-1
4.839763132E0,-1.504684705E-2,2.370211296E-2,-1.440768987E-1
4.842276205E0,-1.504684705E-2,2.370211296E-2,-1.408811063E-1
4.844789330E0,-1.611211151E-2,2.689790353E-2,-1.366200447E-1
4.847302403E0,-1.611211151E-2,2.796316706E-2,-1.344895214E-1
4.849815476E0,-1.504684705E-2,1.944105886E-2,-1.355547905E-1
4.852328601E0,-1.504684705E-2,1.837579533E-2,-1.323589981E-1
4.854841674E0,-1.504684705E-2,1.518000476E-2,-1.312937289E-1
4.857354747E0,-1.611211151E-2,8.788423613E-3,-1.270326823E-1
4.859867872E0,-1.611211151E-2,4.527369980E-3,-1.270326823E-1
4.862380944E0,-1.930790208E-2,1.331579406E-3,-1.238368824E-1
4.864894069E0,-1.824263856E-2,-1.864211168E-3,-1.217063591E-1
4.867407142E0,-1.930790208E-2,-3.994738217E-3,-1.238368824E-1
4.869920215E0,-2.250369266E-2,-7.190528791E-3,-1.195758283E-1
4.872433340E0,-2.463421971E-2,-1.251684688E-2,-1.163800433E-1
4.874946413E0,-2.569948323E-2,-1.464737393E-2,-1.163800433E-1
4.877459486E0,-2.996053733E-2,-1.358211040E-2,-1.110537201E-1
4.879972611E0,-3.209106252E-2,-1.677790098E-2,-1.099884585E-1
4.882485684E0,-3.209106252E-2,-1.571263745E-2,-1.078579351E-1
4.884998757E0,-3.209106252E-2,-1.784316450E-2,-1.025316119E-1
4.887511882E0,-3.422158957E-2,-1.890842803E-2,-9.720529616E-2
4.890024955E0,-3.528685495E-2,-1.890842803E-2,-9.400950372E-2
4.892538028E0,-3.315632790E-2,-1.677790098E-2,-9.081371874E-2
4.895051153E0,-3.635211661E-2,-1.677790098E-2,-8.548739552E-2
4.897564226E0,-3.315632790E-2,-1.677790098E-2,-7.909581810E-2
4.900077299E0,-3.102580085E-2,-1.997369155E-2,-7.590002567E-2
4.902590424E0,-2.889527380E-2,-1.890842803E-2,-7.376950234E-2
4.905103497E0,-2.783001028E-2,-1.677790098E-2,-6.631265581E-2
4.907616569E0,-2.676474676E-2,-2.210421860E-2,-6.631265581E-2
4.910129694E0,-2.143842913E-2,-2.103895508E-2,-5.992107466E-2
4.912642767E0,-1.717737503E-2,-1.677790098E-2,-5.459475517E-2
4.915155840E0,-1.291632000E-2,-1.464737393E-2,-5.139896646E-2
4.917668965E0,-5.459475331E-3,-1.784316450E-2,-4.607264698E-2
4.920182038E0,-1.198421465E-3,-1.677790098E-2,-3.861580417E-2
4.922695111E0,9.321055841E-4,-1.358211040E-2,-3.648527712E-2
4.925208236E0,6.258423440E-3,-1.251684688E-2,-3.328948468E-2
4.927721309E0,9.454214014E-3,-1.571263745E-2,-2.796316706E-2
4.930234434E0,1.158474106E-2,-1.571263745E-2,-2.583264001E-2
4.932747507E0,1.478053164E-2,-1.677790098E-2,-2.263684943E-2
4.935260580E0,1.478053164E-2,-1.784316450E-2,-1.731053181E-2
4.937773705E0,2.010684833E-2,-1.997369155E-2,-1.518000476E-2
4.940286778E0,2.436790243E-2,-1.571263745E-2,-9.853687137E-3
4.942799851E0,2.543316595E-2,-1.358211040E-2,-8.788423613E-3
4.945312976E0,3.075948358E-2,-1.571263745E-2,-6.657897029E-3
4.947825892E0,3.075948358E-2,-1.677790098E-2,-3.462106455E-3
4.950338809E0,3.289001063E-2,-1.571263745E-2,7.989476435E-4
4.952851778E0,3.395527601E-2,-1.464737393E-2,-2.663158812E-4
4.955364694E0,3.821633011E-2,-1.571263745E-2,3.994738217E-3
4.957877611E0,3.608580306E-2,-1.464737393E-2,7.190528791E-3
4.960390580E0,3.182474896E-2,-1.251684688E-2,1.038631983E-2
4.962903497E0,2.969422005E-2,-1.038631983E-2,6.125265267E-3
4.965416413E0,2.969422005E-2,-1.038631983E-2,1.038631983E-2
4.967929382E0,2.756369300E-2,-7.190528791E-3,1.464737393E-2
4.970442299E0,2.543316595E-2,-6.125265267E-3,1.571263745E-2
4.972955215E0,2.436790243E-2,-6.125265267E-3,1.890842803E-2
4.975468184E0,2.330263890E-2,-2.929474693E-3,2.210421860E-2
4.977981101E0,2.223737538E-2,3.462106455E-3,2.210421860E-2
4.980494017E0,2.117211185E-2,3.462106455E-3,2.423474565E-2
4.983006986E0,1.584579423E-2,2.396842930E-3,2.530000918E-2
4.985519903E0,1.478053164E-2,6.657897029E-3,2.423474565E-2
4.988032819E0,1.265000459E-2,7.723160554E-3,2.636527270E-2
4.990545736E0,1.158474106E-2,1.304947771E-2,3.062632680E-2
4.993058705E0,1.691105776E-2,1.411474124E-2,3.275685385E-2
4.995571622E0,1.797632128E-2,2.050632238E-2,3.382211551E-2
4.998084538E0,1.797632128E-2,2.157158591E-2,3.382211551E-2
5.000597507E0,1.691105776E-2,2.157158591E-2,3.382211551E-2
